time,ax,ay,az,atotal
2021-09-03 18:56:06.0150,0.2,-0.16,-0.03,0.25
2021-09-03 18:56:06.0170,-0.33,-0.15,-0.18,0.4
2021-09-03 18:56:06.0180,-0.38,-0.18,-0.44,0.6
2021-09-03 18:56:06.0260,0.35,0.02,-0.78,0.85
2021-09-03 18:56:06.0310,0.26,0.02,-0.29,0.39
2021-09-03 18:56:06.0410,-0.24,-0.01,-0.32,0.4
2021-09-03 18:56:06.0510,0.15,0.01,-0.22,0.26
2021-09-03 18:56:06.0610,0.17,0.04,-0.16,0.23
2021-09-03 18:56:06.0710,0.02,-0.08,-0.3,0.31
2021-09-03 18:56:06.0810,-0.09,-0.07,-0.26,0.28
2021-09-03 18:56:06.1030,-0.04,0.06,-0.17,0.18
2021-09-03 18:56:06.1050,-0.1,0.07,-0.13,0.17
2021-09-03 18:56:06.1110,-0.19,0.06,-0.06,0.2
2021-09-03 18:56:06.1200,-0.15,0.09,-0.03,0.17
2021-09-03 18:56:06.1310,-0.14,0.09,0.07,0.18
2021-09-03 18:56:06.1410,-0.13,0.05,0.11,0.17
2021-09-03 18:56:06.1510,-0.01,0.09,0.17,0.19
2021-09-03 18:56:06.1610,0.06,0.08,0.16,0.18
2021-09-03 18:56:06.1700,0.05,-0.03,0.12,0.13
2021-09-03 18:56:06.1810,-0.02,-0.02,0.14,0.14
2021-09-03 18:56:06.2040,-0.01,0.01,0.12,0.12
2021-09-03 18:56:06.2050,0.04,-0.03,0.1,0.11
2021-09-03 18:56:06.2100,0.07,-0.05,0.08,0.11
2021-09-03 18:56:06.2200,0.09,-0.06,0.06,0.12
2021-09-03 18:56:06.2300,0.14,-0.02,0.06,0.15
2021-09-03 18:56:06.2410,0.15,0.04,0.05,0.16
2021-09-03 18:56:06.2500,0.06,-0.03,-0.04,0.07
2021-09-03 18:56:06.2610,-0.04,-0.06,-0.11,0.13
2021-09-03 18:56:06.2700,0.02,0.0,-0.01,0.02
2021-09-03 18:56:06.2810,0.04,0.03,0.06,0.07
2021-09-03 18:56:06.3030,-0.01,0.04,0.02,0.04
2021-09-03 18:56:06.3050,-0.1,0.02,-0.04,0.1
2021-09-03 18:56:06.3100,-0.13,-0.02,-0.09,0.15
2021-09-03 18:56:06.3200,0.02,0.03,-0.09,0.09
2021-09-03 18:56:06.3300,0.05,0.01,-0.01,0.05
2021-09-03 18:56:06.3400,0.05,-0.04,-0.02,0.06
2021-09-03 18:56:06.3500,-0.04,-0.03,-0.09,0.1
2021-09-03 18:56:06.3610,-0.11,0.06,-0.12,0.17
2021-09-03 18:56:06.3700,-0.13,0.08,-0.08,0.17
2021-09-03 18:56:06.3810,-0.04,0.02,-0.02,0.04
2021-09-03 18:56:06.4040,0.04,-0.03,-0.02,0.05
2021-09-03 18:56:06.4050,-0.01,-0.02,-0.04,0.04
2021-09-03 18:56:06.4100,-0.11,0.02,-0.04,0.11
2021-09-03 18:56:06.4200,-0.13,0.08,0.03,0.15
2021-09-03 18:56:06.4300,-0.03,0.05,0.04,0.07
2021-09-03 18:56:06.4400,0.07,0.01,-0.02,0.07
2021-09-03 18:56:06.4500,0.09,-0.02,-0.01,0.09
2021-09-03 18:56:06.4600,0.09,-0.01,0.04,0.09
2021-09-03 18:56:06.4700,0.08,0.05,0.05,0.1
2021-09-03 18:56:06.4800,0.03,0.04,0.05,0.07
2021-09-03 18:56:06.5040,0.0,0.03,0.04,0.05
2021-09-03 18:56:06.5050,-0.01,0.01,0.0,0.01
2021-09-03 18:56:06.5090,0.02,-0.02,-0.01,0.03
2021-09-03 18:56:06.5190,0.05,0.05,0.06,0.09
2021-09-03 18:56:06.5300,0.0,0.03,0.06,0.06
2021-09-03 18:56:06.5400,0.02,-0.05,0.01,0.05
2021-09-03 18:56:06.5500,0.09,-0.02,-0.01,0.09
2021-09-03 18:56:06.5600,0.1,-0.01,-0.02,0.1
2021-09-03 18:56:06.5700,0.1,-0.02,-0.01,0.1
2021-09-03 18:56:06.5800,0.05,0.01,0.02,0.05
2021-09-03 18:56:06.6060,-0.05,0.01,-0.02,0.05
2021-09-03 18:56:06.6070,0.0,0.02,0.02,0.02
2021-09-03 18:56:06.6090,0.05,0.05,0.05,0.08
2021-09-03 18:56:06.6280,-0.05,-0.03,0.02,0.06
2021-09-03 18:56:06.6300,-0.08,0.01,0.01,0.08
2021-09-03 18:56:06.6420,-0.05,0.09,0.02,0.1
2021-09-03 18:56:06.6490,-0.04,0.07,0.05,0.09
2021-09-03 18:56:06.6590,-0.02,0.05,0.05,0.07
2021-09-03 18:56:06.6690,-0.04,0.0,0.0,0.04
2021-09-03 18:56:06.6800,0.05,-0.03,-0.04,0.07
2021-09-03 18:56:06.7040,0.09,-0.05,0.05,0.11
2021-09-03 18:56:06.7050,0.09,-0.03,0.13,0.16
2021-09-03 18:56:06.7090,0.13,-0.03,0.15,0.2
2021-09-03 18:56:06.7190,0.09,-0.03,0.11,0.14
2021-09-03 18:56:06.7290,0.01,-0.03,-0.01,0.03
2021-09-03 18:56:06.7390,-0.07,0.03,-0.08,0.11
2021-09-03 18:56:06.7490,-0.1,0.02,-0.06,0.11
2021-09-03 18:56:06.7590,-0.05,0.0,-0.01,0.05
2021-09-03 18:56:06.7690,-0.02,0.07,-0.07,0.1
2021-09-03 18:56:06.7800,0.01,0.04,-0.09,0.09
2021-09-03 18:56:06.8050,0.08,0.0,-0.08,0.11
2021-09-03 18:56:06.8060,0.05,-0.01,0.01,0.05
2021-09-03 18:56:06.8080,0.08,-0.01,0.01,0.08
2021-09-03 18:56:06.8190,0.15,0.08,-0.03,0.17
2021-09-03 18:56:06.8290,0.09,0.06,-0.06,0.12
2021-09-03 18:56:06.8390,0.1,0.03,0.01,0.1
2021-09-03 18:56:06.8490,0.15,0.08,0.02,0.17
2021-09-03 18:56:06.8590,0.14,0.08,0.12,0.2
2021-09-03 18:56:06.8690,0.05,0.06,0.15,0.16
2021-09-03 18:56:06.8790,0.03,0.1,0.1,0.14
2021-09-03 18:56:06.9040,0.06,0.17,0.14,0.22
2021-09-03 18:56:06.9050,0.26,0.01,0.26,0.36
2021-09-03 18:56:06.9080,0.46,-0.07,0.12,0.48
2021-09-03 18:56:06.9180,0.11,-0.01,0.17,0.2
2021-09-03 18:56:06.9290,-0.17,-0.08,0.33,0.37
2021-09-03 18:56:06.9380,-0.26,-0.13,0.4,0.49
2021-09-03 18:56:06.9490,-0.24,0.14,0.4,0.48
2021-09-03 18:56:06.9590,-0.17,0.13,0.33,0.39
2021-09-03 18:56:06.9690,-0.04,0.11,0.29,0.31
2021-09-03 18:56:06.9790,0.02,0.03,0.11,0.11
2021-09-03 18:56:07.0030,-0.06,-0.04,-0.02,0.07
2021-09-03 18:56:07.0040,-0.15,0.01,-0.12,0.19
2021-09-03 18:56:07.0080,-0.21,0.0,-0.11,0.23
2021-09-03 18:56:07.0180,-0.2,-0.07,-0.03,0.21
2021-09-03 18:56:07.0290,-0.14,-0.01,0.07,0.15
2021-09-03 18:56:07.0380,-0.03,0.06,0.13,0.14
2021-09-03 18:56:07.0480,0.09,0.11,0.12,0.18
2021-09-03 18:56:07.0580,0.14,0.13,0.07,0.2
2021-09-03 18:56:07.0680,0.13,0.02,0.02,0.13
2021-09-03 18:56:07.0780,0.18,-0.16,0.05,0.24
2021-09-03 18:56:07.1010,0.32,-0.13,0.11,0.36
2021-09-03 18:56:07.1030,0.43,-0.03,0.23,0.48
2021-09-03 18:56:07.1080,0.41,0.02,0.33,0.52
2021-09-03 18:56:07.1180,0.21,0.02,0.26,0.33
2021-09-03 18:56:07.1280,0.02,0.0,0.05,0.05
2021-09-03 18:56:07.1380,-0.02,-0.03,0.0,0.03
2021-09-03 18:56:07.1480,0.02,-0.07,0.05,0.08
2021-09-03 18:56:07.1580,0.16,-0.04,0.06,0.17
2021-09-03 18:56:07.1680,0.16,0.08,0.11,0.21
2021-09-03 18:56:07.1780,0.07,0.06,0.03,0.09
2021-09-03 18:56:07.2040,0.12,-0.05,-0.14,0.19
2021-09-03 18:56:07.2050,0.27,0.07,-0.11,0.29
2021-09-03 18:56:07.2070,0.31,0.15,-0.01,0.34
2021-09-03 18:56:07.2180,0.18,-0.06,-0.02,0.19
2021-09-03 18:56:07.2280,0.1,-0.07,0.02,0.12
2021-09-03 18:56:07.2380,0.07,0.01,0.11,0.13
2021-09-03 18:56:07.2480,0.08,0.05,0.17,0.19
2021-09-03 18:56:07.2580,-0.02,0.15,0.25,0.29
2021-09-03 18:56:07.2680,-0.11,0.21,0.35,0.42
2021-09-03 18:56:07.2780,-0.1,0.04,0.07,0.12
2021-09-03 18:56:07.3030,-0.17,-0.14,-0.15,0.26
2021-09-03 18:56:07.3040,-0.23,0.0,-0.13,0.26
2021-09-03 18:56:07.3070,-0.21,0.14,-0.02,0.25
2021-09-03 18:56:07.3180,-0.29,0.03,-0.04,0.29
2021-09-03 18:56:07.3270,-0.28,0.06,-0.06,0.29
2021-09-03 18:56:07.3370,-0.22,0.04,-0.01,0.22
2021-09-03 18:56:07.3470,-0.1,-0.05,-0.18,0.21
2021-09-03 18:56:07.3580,-0.09,-0.03,-0.18,0.2
2021-09-03 18:56:07.3680,-0.05,0.04,-0.23,0.23
2021-09-03 18:56:07.3780,-0.16,0.16,-0.38,0.44
2021-09-03 18:56:07.4030,-0.35,0.09,-0.35,0.5
2021-09-03 18:56:07.4040,-0.52,-0.06,-0.4,0.65
2021-09-03 18:56:07.4070,-0.4,-0.1,-0.48,0.63
2021-09-03 18:56:07.4170,-0.16,-0.06,-0.31,0.35
2021-09-03 18:56:07.4270,-0.1,0.03,-0.13,0.16
2021-09-03 18:56:07.4370,-0.21,0.09,-0.24,0.33
2021-09-03 18:56:07.4480,-0.38,0.19,-0.46,0.62
2021-09-03 18:56:07.4580,-0.32,0.26,-0.55,0.68
2021-09-03 18:56:07.4670,-0.36,0.1,-0.44,0.57
2021-09-03 18:56:07.4780,-0.33,-0.08,-0.3,0.45
2021-09-03 18:56:07.5020,-0.2,0.01,-0.12,0.23
2021-09-03 18:56:07.5030,-0.18,0.02,-0.03,0.18
2021-09-03 18:56:07.5070,-0.16,-0.01,-0.08,0.17
2021-09-03 18:56:07.5170,-0.04,-0.06,-0.11,0.13
2021-09-03 18:56:07.5270,0.0,0.02,0.05,0.05
2021-09-03 18:56:07.5370,-0.33,0.18,0.23,0.44
2021-09-03 18:56:07.5470,-0.39,0.03,-0.16,0.42
2021-09-03 18:56:07.5570,0.21,-0.02,-0.43,0.47
2021-09-03 18:56:07.5670,0.23,0.01,-0.19,0.29
2021-09-03 18:56:07.5770,-0.2,-0.2,0.1,0.3
2021-09-03 18:56:07.6000,-0.44,-0.09,0.29,0.53
2021-09-03 18:56:07.6010,-0.43,0.05,0.25,0.49
2021-09-03 18:56:07.6060,-0.16,0.01,-0.03,0.16
2021-09-03 18:56:07.6170,-0.02,0.13,0.0,0.13
2021-09-03 18:56:07.6270,-0.33,0.06,0.27,0.43
2021-09-03 18:56:07.6360,-0.6,-0.13,0.25,0.66
2021-09-03 18:56:07.6470,-0.36,-0.04,0.11,0.37
2021-09-03 18:56:07.6570,-0.02,0.19,0.21,0.28
2021-09-03 18:56:07.6670,0.05,-0.01,0.24,0.24
2021-09-03 18:56:07.6770,0.09,-0.32,0.1,0.34
2021-09-03 18:56:07.7010,0.29,-0.14,0.11,0.34
2021-09-03 18:56:07.7020,0.43,0.14,0.13,0.47
2021-09-03 18:56:07.7060,0.26,0.02,0.02,0.26
2021-09-03 18:56:07.7170,-0.03,-0.11,0.11,0.15
2021-09-03 18:56:07.7270,-0.06,-0.08,0.29,0.3
2021-09-03 18:56:07.7360,0.2,0.02,0.28,0.34
2021-09-03 18:56:07.7470,0.31,-0.02,0.32,0.44
2021-09-03 18:56:07.7560,0.01,0.0,0.35,0.35
2021-09-03 18:56:07.7660,-0.36,-0.06,0.2,0.41
2021-09-03 18:56:07.7770,-0.38,-0.17,0.07,0.42
2021-09-03 18:56:07.7990,-0.08,-0.04,0.06,0.1
2021-09-03 18:56:07.8010,0.17,0.09,0.04,0.19
2021-09-03 18:56:07.8060,0.24,-0.03,-0.04,0.24
2021-09-03 18:56:07.8160,0.29,-0.21,-0.11,0.37
2021-09-03 18:56:07.8260,0.32,-0.19,-0.11,0.38
2021-09-03 18:56:07.8360,0.26,-0.07,-0.05,0.27
2021-09-03 18:56:07.8460,0.19,-0.18,-0.09,0.27
2021-09-03 18:56:07.8560,0.22,-0.19,-0.04,0.29
2021-09-03 18:56:07.8660,0.25,-0.09,0.11,0.28
2021-09-03 18:56:07.8760,0.26,-0.06,0.27,0.37
2021-09-03 18:56:07.8990,0.23,-0.23,0.35,0.47
2021-09-03 18:56:07.9000,0.22,-0.41,0.32,0.56
2021-09-03 18:56:07.9050,0.34,-0.35,0.35,0.6
2021-09-03 18:56:07.9150,0.56,-0.21,0.38,0.7
2021-09-03 18:56:07.9260,0.71,-0.27,0.37,0.84
2021-09-03 18:56:07.9360,0.71,-0.57,0.42,1.0
2021-09-03 18:56:07.9460,0.73,-0.76,0.5,1.16
2021-09-03 18:56:07.9550,0.82,-0.85,0.6,1.32
2021-09-03 18:56:07.9660,1.02,-0.8,0.56,1.41
2021-09-03 18:56:07.9760,1.1,-0.72,0.51,1.41
2021-09-03 18:56:08.0000,0.93,-0.83,0.47,1.33
2021-09-03 18:56:08.0020,0.87,-0.88,0.45,1.31
2021-09-03 18:56:08.0050,0.8,-0.76,0.6,1.25
2021-09-03 18:56:08.0160,1.12,-0.8,0.77,1.57
2021-09-03 18:56:08.0250,1.12,-0.73,0.98,1.65
2021-09-03 18:56:08.0350,0.75,-0.56,1.01,1.37
2021-09-03 18:56:08.0460,0.22,-0.55,1.03,1.18
2021-09-03 18:56:08.0550,-0.16,-0.78,1.15,1.39
2021-09-03 18:56:08.0660,-0.31,-0.79,1.28,1.53
2021-09-03 18:56:08.0760,-0.41,-0.65,1.43,1.62
2021-09-03 18:56:08.1010,-0.2,-0.77,1.66,1.84
2021-09-03 18:56:08.1020,0.23,-1.06,1.95,2.23
2021-09-03 18:56:08.1050,0.54,-1.08,2.2,2.5
2021-09-03 18:56:08.1150,0.66,-1.06,2.36,2.66
2021-09-03 18:56:08.1260,0.63,-1.22,2.45,2.8
2021-09-03 18:56:08.1350,0.64,-1.57,2.59,3.09
2021-09-03 18:56:08.1450,0.77,-1.66,2.6,3.17
2021-09-03 18:56:08.1550,1.05,-1.32,2.41,2.94
2021-09-03 18:56:08.1650,1.15,-1.05,2.44,2.89
2021-09-03 18:56:08.1760,0.56,-0.83,2.32,2.52
2021-09-03 18:56:08.2010,-0.28,-1.02,2.76,2.95
2021-09-03 18:56:08.2020,-1.08,-1.37,2.94,3.41
2021-09-03 18:56:08.2050,-1.06,-1.57,2.87,3.43
2021-09-03 18:56:08.2150,-0.46,-1.33,2.72,3.06
2021-09-03 18:56:08.2250,0.31,-1.06,2.57,2.79
2021-09-03 18:56:08.2350,0.88,-0.86,2.51,2.79
2021-09-03 18:56:08.2450,1.2,-0.55,2.4,2.73
2021-09-03 18:56:08.2550,1.37,-0.15,2.31,2.68
2021-09-03 18:56:08.2650,1.34,0.26,2.22,2.6
2021-09-03 18:56:08.2750,1.21,0.56,2.02,2.42
2021-09-03 18:56:08.2990,1.17,0.63,1.7,2.15
2021-09-03 18:56:08.3000,1.21,0.57,1.33,1.88
2021-09-03 18:56:08.3040,1.38,0.74,1.08,1.9
2021-09-03 18:56:08.3140,1.42,0.95,0.7,1.84
2021-09-03 18:56:08.3250,1.15,0.86,0.36,1.48
2021-09-03 18:56:08.3350,0.78,0.7,-0.04,1.04
2021-09-03 18:56:08.3450,0.64,0.63,-0.49,1.02
2021-09-03 18:56:08.3550,0.6,0.51,-0.9,1.19
2021-09-03 18:56:08.3650,0.51,0.43,-1.24,1.4
2021-09-03 18:56:08.3750,0.43,0.39,-1.6,1.7
2021-09-03 18:56:08.3980,0.37,0.38,-2.0,2.06
2021-09-03 18:56:08.3990,0.46,0.32,-2.35,2.41
2021-09-03 18:56:08.4040,0.52,0.3,-2.68,2.74
2021-09-03 18:56:08.4140,0.39,0.41,-3.0,3.05
2021-09-03 18:56:08.4250,0.14,0.62,-3.31,3.37
2021-09-03 18:56:08.4340,-0.15,0.79,-3.6,3.68
2021-09-03 18:56:08.4450,-0.49,1.03,-3.86,4.02
2021-09-03 18:56:08.4540,-0.89,1.27,-3.95,4.24
2021-09-03 18:56:08.4650,-1.26,1.51,-4.15,4.59
2021-09-03 18:56:08.4750,-1.38,1.76,-4.39,4.92
2021-09-03 18:56:08.4970,-1.38,1.95,-4.47,5.06
2021-09-03 18:56:08.4980,-1.42,2.1,-4.46,5.13
2021-09-03 18:56:08.5040,-1.29,2.12,-4.55,5.18
2021-09-03 18:56:08.5140,-1.14,2.13,-4.64,5.23
2021-09-03 18:56:08.5240,-1.15,2.02,-4.45,5.02
2021-09-03 18:56:08.5340,-1.76,0.5,-3.03,3.53
2021-09-03 18:56:08.5440,-3.22,-1.09,-1.75,3.82
2021-09-03 18:56:08.5540,-0.16,-3.6,-0.35,3.62
2021-09-03 18:56:08.5640,4.23,-4.47,-1.22,6.27
2021-09-03 18:56:08.5750,5.81,-2.8,1.25,6.56
2021-09-03 18:56:08.5970,2.73,-1.15,1.53,3.33
2021-09-03 18:56:08.5990,1.12,-0.04,-0.69,1.31
2021-09-03 18:56:08.6040,0.04,0.31,-2.4,2.42
2021-09-03 18:56:08.6140,-1.19,-0.17,-2.1,2.41
2021-09-03 18:56:08.6240,-2.12,0.46,-1.51,2.64
2021-09-03 18:56:08.6340,-2.17,1.4,-0.96,2.75
2021-09-03 18:56:08.6440,-1.98,1.01,-0.7,2.33
2021-09-03 18:56:08.6540,-1.66,0.1,-0.7,1.8
2021-09-03 18:56:08.6640,-1.12,-0.17,-0.5,1.23
2021-09-03 18:56:08.6740,-0.58,0.13,-0.27,0.65
2021-09-03 18:56:08.6990,-0.19,0.24,-0.37,0.48
2021-09-03 18:56:08.7000,-0.03,-0.01,-0.54,0.54
2021-09-03 18:56:08.7030,0.2,-0.22,-0.64,0.7
2021-09-03 18:56:08.7130,0.69,-0.3,-0.68,1.01
2021-09-03 18:56:08.7240,1.14,-0.33,-0.63,1.34
2021-09-03 18:56:08.7340,1.24,-0.21,-0.6,1.39
2021-09-03 18:56:08.7440,0.86,0.06,-0.47,0.98
2021-09-03 18:56:08.7540,0.11,0.33,-0.14,0.37
2021-09-03 18:56:08.7640,-0.68,0.35,0.22,0.79
2021-09-03 18:56:08.7740,-1.13,0.24,0.46,1.24
2021-09-03 18:56:08.7970,-1.11,0.23,0.46,1.22
2021-09-03 18:56:08.7980,-0.46,0.13,0.25,0.53
2021-09-03 18:56:08.8030,0.36,-0.14,0.02,0.38
2021-09-03 18:56:08.8130,0.91,-0.39,-0.12,0.99
2021-09-03 18:56:08.8230,1.0,-0.47,-0.05,1.1
2021-09-03 18:56:08.8330,0.6,-0.41,0.13,0.73
2021-09-03 18:56:08.8440,-0.01,-0.38,0.27,0.46
2021-09-03 18:56:08.8530,-0.45,-0.4,0.25,0.65
2021-09-03 18:56:08.8640,-0.47,-0.32,0.09,0.57
2021-09-03 18:56:08.8730,-0.1,-0.21,-0.03,0.23
2021-09-03 18:56:08.8980,0.07,-0.25,0.02,0.26
2021-09-03 18:56:08.9000,-0.18,-0.24,0.08,0.31
2021-09-03 18:56:08.9030,-0.57,-0.15,-0.1,0.59
2021-09-03 18:56:08.9130,-0.85,-0.07,-0.55,1.01
2021-09-03 18:56:08.9230,-0.83,-0.01,-1.08,1.36
2021-09-03 18:56:08.9330,-0.53,0.02,-1.39,1.48
2021-09-03 18:56:08.9430,-0.48,0.04,-1.35,1.43
2021-09-03 18:56:08.9530,-0.63,0.06,-1.29,1.43
2021-09-03 18:56:08.9630,-0.54,0.0,-1.24,1.35
2021-09-03 18:56:08.9740,-0.19,-0.1,-1.11,1.13
2021-09-03 18:56:08.9970,0.04,-0.13,-0.8,0.81
2021-09-03 18:56:08.9980,-0.1,-0.1,-0.56,0.57
2021-09-03 18:56:09.0020,-0.37,-0.06,-0.55,0.66
2021-09-03 18:56:09.0130,-0.41,0.19,-0.53,0.69
2021-09-03 18:56:09.0230,-0.31,0.27,-0.25,0.48
2021-09-03 18:56:09.0330,-0.18,0.19,-0.07,0.27
2021-09-03 18:56:09.0430,-0.06,0.07,0.08,0.12
2021-09-03 18:56:09.0520,-0.17,-0.04,0.17,0.24
2021-09-03 18:56:09.0630,-0.17,-0.04,0.26,0.31
2021-09-03 18:56:09.0730,-0.15,0.07,0.35,0.38
2021-09-03 18:56:09.0950,-0.07,0.03,0.41,0.41
2021-09-03 18:56:09.0970,-0.08,-0.08,0.6,0.61
2021-09-03 18:56:09.1020,-0.09,-0.11,0.83,0.84
2021-09-03 18:56:09.1130,0.07,0.02,0.95,0.95
2021-09-03 18:56:09.1220,0.43,0.13,0.95,1.05
2021-09-03 18:56:09.1320,0.66,0.07,0.98,1.18
2021-09-03 18:56:09.1430,0.73,0.06,0.97,1.21
2021-09-03 18:56:09.1520,0.83,0.14,1.02,1.32
2021-09-03 18:56:09.1630,0.65,0.0,1.16,1.32
2021-09-03 18:56:09.1730,0.47,-0.18,1.45,1.53
2021-09-03 18:56:09.1970,0.51,-0.28,2.01,2.09
2021-09-03 18:56:09.1990,0.58,-0.49,2.72,2.82
2021-09-03 18:56:09.2020,0.56,-0.44,3.0,3.08
2021-09-03 18:56:09.2130,0.61,-0.13,3.0,3.06
2021-09-03 18:56:09.2220,0.68,-0.18,2.98,3.06
2021-09-03 18:56:09.2320,0.57,-0.61,3.03,3.14
2021-09-03 18:56:09.2430,1.01,-0.75,3.02,3.27
2021-09-03 18:56:09.2520,1.73,-0.77,2.85,3.42
2021-09-03 18:56:09.2630,2.16,-1.01,2.25,3.27
2021-09-03 18:56:09.2720,2.2,-1.27,1.51,2.95
2021-09-03 18:56:09.2950,1.91,-1.39,1.08,2.59
2021-09-03 18:56:09.2970,1.62,-2.22,1.46,3.11
2021-09-03 18:56:09.3020,1.79,-3.46,2.25,4.49
2021-09-03 18:56:09.3120,2.72,-3.51,2.27,4.98
2021-09-03 18:56:09.3220,3.05,-2.67,1.71,4.39
2021-09-03 18:56:09.3320,2.36,-2.71,1.06,3.74
2021-09-03 18:56:09.3420,2.32,-3.26,0.46,4.02
2021-09-03 18:56:09.3520,2.88,-3.36,-0.13,4.42
2021-09-03 18:56:09.3630,3.37,-3.64,-0.26,4.96
2021-09-03 18:56:09.3730,3.88,-3.57,-0.03,5.27
2021-09-03 18:56:09.3960,3.15,-2.75,0.36,4.19
2021-09-03 18:56:09.3980,1.53,-3.13,0.3,3.49
2021-09-03 18:56:09.4010,0.89,-4.11,0.38,4.22
2021-09-03 18:56:09.4110,1.06,-3.81,0.85,4.04
2021-09-03 18:56:09.4220,1.75,-2.84,1.57,3.68
2021-09-03 18:56:09.4320,1.54,-1.94,2.16,3.28
2021-09-03 18:56:09.4420,0.44,-1.39,2.12,2.57
2021-09-03 18:56:09.4520,-1.0,-0.89,1.51,2.01
2021-09-03 18:56:09.4620,-1.87,-0.58,0.57,2.03
2021-09-03 18:56:09.4720,-1.84,-0.62,0.02,1.94
2021-09-03 18:56:09.4950,-1.07,-0.72,0.06,1.29
2021-09-03 18:56:09.4970,0.82,-0.59,0.67,1.21
2021-09-03 18:56:09.5010,1.59,0.24,1.93,2.51
2021-09-03 18:56:09.5110,1.49,-0.27,3.61,3.91
2021-09-03 18:56:09.5220,1.44,0.22,3.35,3.65
2021-09-03 18:56:09.5310,1.43,0.8,3.36,3.73
2021-09-03 18:56:09.5420,1.5,0.57,2.94,3.34
2021-09-03 18:56:09.5510,1.99,0.17,2.4,3.12
2021-09-03 18:56:09.5620,2.63,0.35,2.04,3.34
2021-09-03 18:56:09.5710,3.23,0.87,1.86,3.82
2021-09-03 18:56:09.5950,3.42,1.21,1.75,4.02
2021-09-03 18:56:09.5970,3.07,1.26,1.62,3.69
2021-09-03 18:56:09.6010,2.42,1.2,1.39,3.03
2021-09-03 18:56:09.6110,1.85,1.13,1.16,2.45
2021-09-03 18:56:09.6210,1.4,1.04,1.04,2.03
2021-09-03 18:56:09.6310,0.94,0.85,0.86,1.53
2021-09-03 18:56:09.6410,0.68,0.72,0.41,1.07
2021-09-03 18:56:09.6510,0.83,0.6,-0.12,1.03
2021-09-03 18:56:09.6620,1.08,0.39,-0.54,1.26
2021-09-03 18:56:09.6710,1.04,0.14,-0.9,1.38
2021-09-03 18:56:09.6940,0.63,-0.08,-1.16,1.32
2021-09-03 18:56:09.6950,-0.04,-0.19,-1.36,1.37
2021-09-03 18:56:09.7000,-0.67,-0.4,-1.61,1.78
2021-09-03 18:56:09.7100,-1.04,-0.61,-1.91,2.25
2021-09-03 18:56:09.7210,-1.21,-0.73,-2.32,2.71
2021-09-03 18:56:09.7310,-1.21,-0.9,-2.87,3.24
2021-09-03 18:56:09.7410,-0.91,-0.9,-3.51,3.73
2021-09-03 18:56:09.7510,-0.54,-0.53,-3.96,4.03
2021-09-03 18:56:09.7610,-0.89,0.27,-4.19,4.29
2021-09-03 18:56:09.7710,-2.14,1.08,-4.52,5.11
2021-09-03 18:56:09.7950,-3.63,0.89,-4.73,6.02
2021-09-03 18:56:09.7970,-4.83,0.32,-5.06,7.0
2021-09-03 18:56:09.8000,-5.12,0.31,-5.42,7.46
2021-09-03 18:56:09.8100,-5.39,1.3,-5.3,7.67
2021-09-03 18:56:09.8210,-5.64,3.17,-5.18,8.28
2021-09-03 18:56:09.8300,-5.11,4.02,-5.08,8.25
2021-09-03 18:56:09.8410,-4.37,3.79,-5.7,8.12
2021-09-03 18:56:09.8500,-3.97,3.78,-6.33,8.37
2021-09-03 18:56:09.8610,-4.08,3.69,-5.57,7.82
2021-09-03 18:56:09.8710,-4.01,3.61,-4.59,7.08
2021-09-03 18:56:09.8950,-2.55,0.9,-2.07,3.4
2021-09-03 18:56:09.8960,1.65,-4.7,2.91,5.76
2021-09-03 18:56:09.9000,7.3,-5.32,6.43,11.08
2021-09-03 18:56:09.9110,8.85,0.16,3.31,9.45
2021-09-03 18:56:09.9200,4.05,2.86,-2.12,5.39
2021-09-03 18:56:09.9300,-3.33,-2.61,-5.94,7.29
2021-09-03 18:56:09.9400,-3.72,-9.14,-7.81,12.58
2021-09-03 18:56:09.9500,-4.13,-6.47,-5.72,9.57
2021-09-03 18:56:09.9610,-5.04,1.64,-1.33,5.46
2021-09-03 18:56:09.9700,-1.65,4.53,-1.35,5.0
2021-09-03 18:56:09.9930,1.1,0.05,-3.6,3.76
2021-09-03 18:56:09.9950,1.28,-3.21,-3.79,5.12
2021-09-03 18:56:10.0000,0.09,-0.89,-2.85,2.98
2021-09-03 18:56:10.0100,-1.36,0.87,-2.46,2.94
2021-09-03 18:56:10.0200,-1.8,-0.05,-2.52,3.09
2021-09-03 18:56:10.0300,-1.86,-0.77,-2.26,3.02
2021-09-03 18:56:10.0400,-2.19,-0.45,-1.53,2.7
2021-09-03 18:56:10.0500,-1.96,0.02,-0.92,2.16
2021-09-03 18:56:10.0600,-0.82,0.23,-0.67,1.08
2021-09-03 18:56:10.0700,0.55,0.3,-0.41,0.74
2021-09-03 18:56:10.0940,1.36,0.26,-0.14,1.39
2021-09-03 18:56:10.0950,1.17,0.09,0.23,1.19
2021-09-03 18:56:10.0990,0.33,0.11,0.56,0.65
2021-09-03 18:56:10.1120,-0.58,0.27,0.77,1.0
2021-09-03 18:56:10.1190,-0.85,0.35,0.97,1.33
2021-09-03 18:56:10.1300,-0.26,0.53,0.95,1.11
2021-09-03 18:56:10.1400,0.38,0.58,0.91,1.14
2021-09-03 18:56:10.1500,0.64,0.3,1.0,1.22
2021-09-03 18:56:10.1600,0.34,0.07,1.2,1.24
2021-09-03 18:56:10.1700,-0.27,0.13,1.25,1.28
2021-09-03 18:56:10.1960,-0.37,0.21,1.03,1.11
2021-09-03 18:56:10.1980,0.11,0.12,0.81,0.82
2021-09-03 18:56:10.1990,0.23,-0.13,0.58,0.63
2021-09-03 18:56:10.2100,-0.04,-0.3,0.32,0.44
2021-09-03 18:56:10.2190,-0.45,-0.36,0.19,0.6
2021-09-03 18:56:10.2290,-0.72,-0.4,0.11,0.83
2021-09-03 18:56:10.2390,-0.35,-0.32,0.12,0.48
2021-09-03 18:56:10.2500,0.42,-0.37,0.16,0.58
2021-09-03 18:56:10.2600,0.96,-0.33,0.43,1.1
2021-09-03 18:56:10.2690,0.79,-0.13,1.01,1.28
2021-09-03 18:56:10.2950,0.23,0.2,1.3,1.33
2021-09-03 18:56:10.2960,-0.01,0.27,1.18,1.21
2021-09-03 18:56:10.2990,0.1,0.11,0.81,0.82
2021-09-03 18:56:10.3110,0.25,0.11,0.6,0.65
2021-09-03 18:56:10.3190,0.17,0.04,0.54,0.56
2021-09-03 18:56:10.3290,0.04,-0.01,0.45,0.45
2021-09-03 18:56:10.3390,0.12,0.19,0.24,0.32
2021-09-03 18:56:10.3490,0.25,0.39,0.13,0.48
2021-09-03 18:56:10.3600,0.17,0.24,-0.06,0.3
2021-09-03 18:56:10.3690,0.06,0.13,-0.18,0.23
2021-09-03 18:56:10.3940,-0.03,0.11,-0.2,0.23
2021-09-03 18:56:10.3960,-0.12,0.06,-0.27,0.3
2021-09-03 18:56:10.3990,-0.16,0.12,-0.29,0.35
2021-09-03 18:56:10.4110,-0.19,0.06,-0.23,0.3
2021-09-03 18:56:10.4180,-0.34,-0.08,-0.22,0.41
2021-09-03 18:56:10.4290,-0.39,-0.02,-0.09,0.4
2021-09-03 18:56:10.4390,-0.33,0.02,0.09,0.34
2021-09-03 18:56:10.4490,-0.16,-0.01,0.06,0.17
2021-09-03 18:56:10.4590,-0.03,-0.03,0.04,0.05
2021-09-03 18:56:10.4690,-0.11,-0.16,-0.01,0.19
2021-09-03 18:56:10.4930,-0.05,-0.18,-0.12,0.22
2021-09-03 18:56:10.4950,0.16,-0.1,-0.23,0.29
2021-09-03 18:56:10.4980,0.22,-0.05,-0.38,0.44
2021-09-03 18:56:10.5110,0.17,-0.12,-0.36,0.41
2021-09-03 18:56:10.5180,0.16,-0.02,-0.21,0.26
2021-09-03 18:56:10.5290,0.18,-0.04,0.03,0.18
2021-09-03 18:56:10.5390,0.11,-0.09,0.2,0.24
2021-09-03 18:56:10.5490,-0.02,-0.01,0.4,0.4
2021-09-03 18:56:10.5590,0.04,0.04,0.54,0.54
2021-09-03 18:56:10.5690,0.13,0.07,0.61,0.62
2021-09-03 18:56:10.5920,0.14,0.07,0.57,0.59
2021-09-03 18:56:10.5940,0.08,0.08,0.42,0.43
2021-09-03 18:56:10.5980,0.11,0.01,0.34,0.35
2021-09-03 18:56:10.6110,0.06,0.03,0.33,0.33
2021-09-03 18:56:10.6180,0.08,0.09,0.22,0.25
2021-09-03 18:56:10.6280,0.26,0.03,0.08,0.27
2021-09-03 18:56:10.6380,0.35,-0.09,0.01,0.36
2021-09-03 18:56:10.6480,0.08,-0.07,0.11,0.15
2021-09-03 18:56:10.6590,-0.19,0.03,0.14,0.23
2021-09-03 18:56:10.6680,-0.07,0.13,0.08,0.16
2021-09-03 18:56:10.6920,0.13,0.02,0.01,0.13
2021-09-03 18:56:10.6940,0.07,-0.04,0.01,0.08
2021-09-03 18:56:10.6980,-0.16,0.02,0.16,0.22
2021-09-03 18:56:10.7120,-0.19,0.05,0.16,0.25
2021-09-03 18:56:10.7180,0.13,0.17,-0.05,0.21
2021-09-03 18:56:10.7280,0.36,0.13,-0.13,0.4
2021-09-03 18:56:10.7380,0.3,-0.05,-0.21,0.36
2021-09-03 18:56:10.7480,0.18,-0.09,-0.12,0.23
2021-09-03 18:56:10.7580,-0.01,0.0,-0.04,0.04
2021-09-03 18:56:10.7680,-0.07,0.04,0.06,0.1
2021-09-03 18:56:10.7930,-0.08,0.03,0.13,0.15
2021-09-03 18:56:10.7940,-0.12,0.01,0.23,0.25
2021-09-03 18:56:10.7970,-0.18,0.07,0.25,0.31
2021-09-03 18:56:10.8120,-0.24,0.06,0.25,0.35
2021-09-03 18:56:10.8170,-0.08,0.1,0.12,0.17
2021-09-03 18:56:10.8280,0.09,0.06,0.05,0.11
2021-09-03 18:56:10.8370,-0.19,-0.06,0.04,0.2
2021-09-03 18:56:10.8480,-0.45,-0.05,-0.02,0.45
2021-09-03 18:56:10.8580,-0.4,0.0,0.0,0.4
2021-09-03 18:56:10.8680,-0.37,-0.2,0.15,0.44
2021-09-03 18:56:10.8920,-0.32,-0.17,0.31,0.47
2021-09-03 18:56:10.8930,-0.22,0.1,0.38,0.45
2021-09-03 18:56:10.8970,-0.34,0.02,0.5,0.6
2021-09-03 18:56:10.9100,-0.55,-0.19,0.62,0.85
2021-09-03 18:56:10.9170,-0.58,-0.1,0.71,0.92
2021-09-03 18:56:10.9270,-0.49,-0.05,0.57,0.75
2021-09-03 18:56:10.9380,-0.23,-0.12,0.29,0.38
2021-09-03 18:56:10.9470,0.0,-0.13,0.14,0.19
2021-09-03 18:56:10.9580,0.03,-0.07,0.06,0.09
2021-09-03 18:56:10.9680,0.06,0.06,-0.2,0.21
2021-09-03 18:56:10.9910,0.13,0.08,-0.4,0.42
2021-09-03 18:56:10.9930,0.15,-0.02,-0.46,0.48
2021-09-03 18:56:10.9970,0.26,0.0,-0.45,0.51
2021-09-03 18:56:11.0100,0.34,0.13,-0.41,0.54
2021-09-03 18:56:11.0170,0.35,0.13,-0.46,0.59
2021-09-03 18:56:11.0270,0.27,0.08,-0.54,0.6
2021-09-03 18:56:11.0370,0.17,0.05,-0.63,0.65
2021-09-03 18:56:11.0470,0.08,0.1,-0.63,0.64
2021-09-03 18:56:11.0570,0.06,0.11,-0.59,0.6
2021-09-03 18:56:11.0670,0.08,0.01,-0.58,0.58
2021-09-03 18:56:11.0910,-0.02,-0.03,-0.57,0.57
2021-09-03 18:56:11.0930,-0.21,0.08,-0.45,0.5
2021-09-03 18:56:11.0970,-0.44,0.16,-0.31,0.56
2021-09-03 18:56:11.1120,-0.38,0.11,-0.27,0.47
2021-09-03 18:56:11.1170,-0.14,0.07,-0.34,0.37
2021-09-03 18:56:11.1270,-0.06,-0.08,-0.35,0.36
2021-09-03 18:56:11.1360,-0.16,-0.12,-0.3,0.36
2021-09-03 18:56:11.1470,-0.08,-0.09,-0.23,0.25
2021-09-03 18:56:11.1570,0.07,-0.03,-0.18,0.19
2021-09-03 18:56:11.1670,0.07,-0.04,-0.17,0.18
2021-09-03 18:56:11.1900,0.09,0.01,-0.19,0.21
2021-09-03 18:56:11.1920,0.12,0.07,-0.13,0.19
2021-09-03 18:56:11.1960,0.14,0.05,-0.02,0.15
2021-09-03 18:56:11.2100,0.19,0.12,-0.04,0.22
2021-09-03 18:56:11.2160,0.37,0.09,-0.17,0.41
2021-09-03 18:56:11.2260,0.43,0.05,-0.27,0.51
2021-09-03 18:56:11.2370,0.21,0.02,-0.23,0.31
2021-09-03 18:56:11.2470,-0.06,0.08,-0.23,0.25
2021-09-03 18:56:11.2570,-0.1,0.04,-0.17,0.2
2021-09-03 18:56:11.2670,-0.02,-0.01,-0.17,0.17
2021-09-03 18:56:11.2910,0.13,0.0,-0.1,0.16
2021-09-03 18:56:11.2930,0.19,-0.01,-0.01,0.19
2021-09-03 18:56:11.2960,0.22,0.04,-0.03,0.22
2021-09-03 18:56:11.3100,0.33,0.02,-0.05,0.33
2021-09-03 18:56:11.3170,0.39,-0.02,-0.02,0.39
2021-09-03 18:56:11.3260,0.29,0.05,-0.04,0.29
2021-09-03 18:56:11.3360,0.14,0.02,0.04,0.14
2021-09-03 18:56:11.3460,0.01,-0.01,0.15,0.15
2021-09-03 18:56:11.3570,-0.01,0.03,0.17,0.17
2021-09-03 18:56:11.3660,0.08,0.03,0.11,0.13
2021-09-03 18:56:11.3920,0.17,-0.03,0.08,0.19
2021-09-03 18:56:11.3940,0.28,-0.04,0.12,0.3
2021-09-03 18:56:11.3960,0.29,0.0,0.13,0.31
2021-09-03 18:56:11.4100,0.26,-0.03,0.12,0.28
2021-09-03 18:56:11.4160,0.28,-0.04,0.11,0.3
2021-09-03 18:56:11.4260,0.36,-0.01,0.06,0.36
2021-09-03 18:56:11.4360,0.36,0.0,-0.08,0.36
2021-09-03 18:56:11.4460,0.37,0.0,-0.15,0.39
2021-09-03 18:56:11.4560,0.29,0.01,-0.08,0.3
2021-09-03 18:56:11.4660,0.21,0.0,-0.02,0.21
2021-09-03 18:56:11.4890,0.22,0.02,0.02,0.22
2021-09-03 18:56:11.4910,0.3,-0.02,-0.01,0.3
2021-09-03 18:56:11.4950,0.37,-0.06,-0.16,0.4
2021-09-03 18:56:11.5120,0.37,-0.03,-0.36,0.51
2021-09-03 18:56:11.5150,0.26,0.03,-0.36,0.44
2021-09-03 18:56:11.5270,0.13,0.03,-0.31,0.33
2021-09-03 18:56:11.5360,0.16,0.0,-0.24,0.28
2021-09-03 18:56:11.5460,0.25,-0.04,-0.13,0.28
2021-09-03 18:56:11.5560,0.23,-0.04,0.09,0.25
2021-09-03 18:56:11.5660,0.08,0.0,0.3,0.31
2021-09-03 18:56:11.5900,-0.04,0.05,0.43,0.43
2021-09-03 18:56:11.5920,-0.03,0.06,0.51,0.51
2021-09-03 18:56:11.5950,0.1,0.04,0.51,0.52
2021-09-03 18:56:11.6090,0.21,-0.06,0.46,0.5
2021-09-03 18:56:11.6150,0.25,-0.09,0.43,0.5
2021-09-03 18:56:11.6250,0.19,-0.08,0.43,0.47
2021-09-03 18:56:11.6350,0.07,-0.01,0.41,0.41
2021-09-03 18:56:11.6450,0.02,0.03,0.31,0.31
2021-09-03 18:56:11.6560,0.11,-0.05,0.19,0.22
2021-09-03 18:56:11.6650,0.11,-0.12,0.09,0.18
2021-09-03 18:56:11.6900,-0.01,-0.11,0.09,0.14
2021-09-03 18:56:11.6910,-0.17,-0.03,0.0,0.17
2021-09-03 18:56:11.6950,-0.32,0.03,-0.03,0.32
2021-09-03 18:56:11.7100,-0.25,0.06,-0.07,0.26
2021-09-03 18:56:11.7150,-0.1,0.01,-0.13,0.16
2021-09-03 18:56:11.7260,0.01,-0.03,-0.15,0.15
2021-09-03 18:56:11.7350,0.0,0.0,-0.08,0.08
2021-09-03 18:56:11.7450,-0.09,0.05,-0.16,0.19
2021-09-03 18:56:11.7550,-0.23,0.17,-0.22,0.36
2021-09-03 18:56:11.7660,-0.34,0.15,-0.27,0.45
2021-09-03 18:56:11.7890,-0.36,0.1,-0.32,0.49
2021-09-03 18:56:11.7900,-0.22,0.12,-0.3,0.39
2021-09-03 18:56:11.7950,-0.11,0.14,-0.25,0.3
2021-09-03 18:56:11.8050,-0.01,0.07,-0.24,0.25
2021-09-03 18:56:11.8150,0.02,-0.06,-0.25,0.25
2021-09-03 18:56:11.8250,0.01,-0.11,-0.15,0.18
2021-09-03 18:56:11.8350,0.09,-0.11,-0.09,0.16
2021-09-03 18:56:11.8450,0.17,-0.18,0.02,0.24
2021-09-03 18:56:11.8550,0.18,-0.12,0.09,0.23
2021-09-03 18:56:11.8650,0.14,-0.06,0.09,0.17
2021-09-03 18:56:11.8910,0.1,-0.04,0.16,0.19
2021-09-03 18:56:11.8930,0.05,-0.05,0.23,0.24
2021-09-03 18:56:11.8940,0.08,-0.02,0.27,0.28
2021-09-03 18:56:11.9120,0.06,0.05,0.22,0.23
2021-09-03 18:56:11.9140,0.04,0.04,0.13,0.14
2021-09-03 18:56:11.9260,0.06,0.03,0.06,0.09
2021-09-03 18:56:11.9350,-0.05,0.07,0.09,0.12
2021-09-03 18:56:11.9450,-0.08,0.09,0.06,0.13
2021-09-03 18:56:11.9550,-0.11,0.09,-0.02,0.14
2021-09-03 18:56:11.9650,-0.2,0.09,-0.04,0.22
2021-09-03 18:56:11.9890,-0.17,0.08,-0.07,0.2
2021-09-03 18:56:11.9900,-0.09,0.07,-0.14,0.18
2021-09-03 18:56:11.9940,-0.03,0.04,-0.14,0.14
2021-09-03 18:56:12.0050,-0.02,0.03,-0.15,0.15
2021-09-03 18:56:12.0140,-0.07,-0.04,-0.14,0.16
2021-09-03 18:56:12.0240,-0.07,-0.03,-0.11,0.13
2021-09-03 18:56:12.0340,-0.05,0.0,-0.09,0.1
2021-09-03 18:56:12.0450,0.0,-0.07,-0.12,0.13
2021-09-03 18:56:12.0540,0.0,-0.07,-0.15,0.16
2021-09-03 18:56:12.0650,-0.03,-0.04,-0.15,0.15
2021-09-03 18:56:12.0890,-0.01,-0.01,-0.12,0.12
2021-09-03 18:56:12.0900,0.02,-0.01,-0.08,0.08
2021-09-03 18:56:12.0940,0.0,-0.01,-0.1,0.1
2021-09-03 18:56:12.1040,0.0,-0.01,-0.15,0.15
2021-09-03 18:56:12.1140,0.01,0.03,-0.14,0.14
2021-09-03 18:56:12.1240,-0.02,0.04,-0.16,0.16
2021-09-03 18:56:12.1340,-0.01,0.01,-0.17,0.17
2021-09-03 18:56:12.1440,-0.01,0.03,-0.13,0.13
2021-09-03 18:56:12.1540,-0.03,0.08,-0.05,0.09
2021-09-03 18:56:12.1640,-0.01,0.06,0.02,0.06
2021-09-03 18:56:12.1880,0.08,0.04,0.03,0.09
2021-09-03 18:56:12.1890,0.17,0.08,0.04,0.19
2021-09-03 18:56:12.1940,0.15,0.03,0.01,0.15
2021-09-03 18:56:12.2040,0.08,-0.05,0.01,0.09
2021-09-03 18:56:12.2140,0.05,-0.09,0.04,0.11
2021-09-03 18:56:12.2240,0.05,-0.07,0.05,0.09
2021-09-03 18:56:12.2340,0.02,-0.02,0.04,0.04
2021-09-03 18:56:12.2440,0.02,0.0,0.04,0.04
2021-09-03 18:56:12.2540,0.07,0.03,0.03,0.08
2021-09-03 18:56:12.2650,0.03,0.04,0.0,0.05
2021-09-03 18:56:12.2880,-0.03,0.03,-0.01,0.04
2021-09-03 18:56:12.2890,-0.01,0.06,-0.06,0.08
2021-09-03 18:56:12.2930,-0.01,0.12,-0.04,0.12
2021-09-03 18:56:12.3030,-0.04,0.13,0.0,0.13
2021-09-03 18:56:12.3140,0.02,0.1,0.03,0.1
2021-09-03 18:56:12.3230,0.08,0.07,0.02,0.1
2021-09-03 18:56:12.3340,0.02,0.04,0.0,0.04
2021-09-03 18:56:12.3440,-0.01,-0.03,-0.01,0.03
2021-09-03 18:56:12.3530,0.04,-0.08,-0.02,0.09
2021-09-03 18:56:12.3640,0.11,0.02,-0.02,0.11
2021-09-03 18:56:12.3890,0.11,0.07,0.01,0.13
2021-09-03 18:56:12.3910,0.07,0.05,0.01,0.08
2021-09-03 18:56:12.3930,0.04,0.09,0.03,0.1
2021-09-03 18:56:12.4040,-0.01,0.05,0.08,0.09
2021-09-03 18:56:12.4140,0.0,-0.02,0.05,0.05
2021-09-03 18:56:12.4230,0.11,0.0,-0.04,0.11
2021-09-03 18:56:12.4330,0.16,0.0,-0.09,0.18
2021-09-03 18:56:12.4440,0.24,-0.11,-0.12,0.28
2021-09-03 18:56:12.4530,0.22,-0.15,-0.12,0.29
2021-09-03 18:56:12.4640,0.15,-0.08,-0.05,0.17
2021-09-03 18:56:12.4860,0.14,0.01,-0.02,0.14
2021-09-03 18:56:12.4870,0.08,0.04,-0.05,0.1
2021-09-03 18:56:12.4930,0.1,0.05,-0.02,0.11
2021-09-03 18:56:12.5030,0.15,0.07,0.05,0.17
2021-09-03 18:56:12.5130,0.11,-0.05,0.0,0.12
2021-09-03 18:56:12.5230,0.04,-0.12,-0.08,0.14
2021-09-03 18:56:12.5330,0.07,-0.1,-0.12,0.17
2021-09-03 18:56:12.5430,0.12,-0.03,-0.13,0.17
2021-09-03 18:56:12.5530,0.1,-0.01,-0.16,0.18
2021-09-03 18:56:12.5630,0.05,0.04,-0.24,0.24
2021-09-03 18:56:12.5870,0.01,0.1,-0.26,0.27
2021-09-03 18:56:12.5890,0.03,0.04,-0.25,0.25
2021-09-03 18:56:12.5920,-0.02,-0.01,-0.27,0.27
2021-09-03 18:56:12.6030,-0.19,-0.01,-0.2,0.27
2021-09-03 18:56:12.6130,-0.3,-0.03,-0.21,0.36
2021-09-03 18:56:12.6230,-0.35,-0.03,-0.23,0.41
2021-09-03 18:56:12.6330,-0.35,-0.03,-0.17,0.39
2021-09-03 18:56:12.6430,-0.24,-0.05,-0.13,0.27
2021-09-03 18:56:12.6530,-0.1,0.0,-0.1,0.14
2021-09-03 18:56:12.6630,0.04,-0.01,-0.1,0.1
2021-09-03 18:56:12.6870,0.09,-0.06,-0.15,0.18
2021-09-03 18:56:12.6880,0.01,-0.01,-0.14,0.14
2021-09-03 18:56:12.6920,-0.08,0.0,-0.17,0.18
2021-09-03 18:56:12.7030,-0.06,-0.02,-0.27,0.27
2021-09-03 18:56:12.7120,-0.1,-0.04,-0.33,0.34
2021-09-03 18:56:12.7220,-0.2,-0.04,-0.34,0.39
2021-09-03 18:56:12.7330,-0.19,-0.06,-0.33,0.38
2021-09-03 18:56:12.7430,-0.11,-0.17,-0.42,0.46
2021-09-03 18:56:12.7520,0.0,-0.11,-0.53,0.54
2021-09-03 18:56:12.7630,-0.02,0.0,-0.44,0.44
2021-09-03 18:56:12.7870,-0.22,0.02,-0.23,0.31
2021-09-03 18:56:12.7890,-0.47,0.04,0.01,0.47
2021-09-03 18:56:12.7920,-0.53,0.13,0.19,0.57
2021-09-03 18:56:12.8020,-0.43,0.16,0.25,0.52
2021-09-03 18:56:12.8120,-0.32,0.13,0.31,0.46
2021-09-03 18:56:12.8220,-0.22,0.07,0.34,0.41
2021-09-03 18:56:12.8320,-0.11,0.02,0.28,0.3
2021-09-03 18:56:12.8420,0.03,-0.04,0.2,0.2
2021-09-03 18:56:12.8520,0.14,0.0,0.2,0.24
2021-09-03 18:56:12.8630,0.12,0.08,0.31,0.34
2021-09-03 18:56:12.8870,-0.04,0.12,0.44,0.45
2021-09-03 18:56:12.8880,-0.23,0.14,0.53,0.59
2021-09-03 18:56:12.8920,-0.27,0.14,0.6,0.67
2021-09-03 18:56:12.9020,-0.14,0.12,0.65,0.67
2021-09-03 18:56:12.9120,0.07,0.08,0.68,0.68
2021-09-03 18:56:12.9220,0.14,0.07,0.67,0.68
2021-09-03 18:56:12.9320,0.11,0.08,0.62,0.63
2021-09-03 18:56:12.9420,0.16,0.08,0.56,0.58
2021-09-03 18:56:12.9520,0.26,-0.03,0.49,0.55
2021-09-03 18:56:12.9620,0.19,-0.08,0.43,0.47
2021-09-03 18:56:12.9870,0.12,-0.01,0.33,0.35
2021-09-03 18:56:12.9880,0.08,-0.03,0.16,0.18
2021-09-03 18:56:12.9910,0.02,-0.08,0.02,0.08
2021-09-03 18:56:13.0020,0.05,-0.07,-0.04,0.09
2021-09-03 18:56:13.0120,0.15,0.01,-0.05,0.15
2021-09-03 18:56:13.0210,0.17,-0.01,-0.01,0.17
2021-09-03 18:56:13.0320,0.03,0.0,-0.02,0.03
2021-09-03 18:56:13.0420,-0.13,0.01,0.01,0.13
2021-09-03 18:56:13.0520,-0.19,0.02,0.06,0.2
2021-09-03 18:56:13.0620,-0.12,0.08,0.12,0.18
2021-09-03 18:56:13.0870,0.05,0.12,0.14,0.19
2021-09-03 18:56:13.0890,0.1,0.07,0.16,0.2
2021-09-03 18:56:13.0910,0.01,0.01,0.11,0.11
2021-09-03 18:56:13.1020,-0.01,0.01,0.08,0.08
2021-09-03 18:56:13.1110,-0.03,-0.01,0.09,0.09
2021-09-03 18:56:13.1210,-0.03,-0.01,0.11,0.11
2021-09-03 18:56:13.1310,0.08,0.03,0.1,0.13
2021-09-03 18:56:13.1420,0.16,0.05,0.09,0.19
2021-09-03 18:56:13.1510,0.18,0.03,0.13,0.22
2021-09-03 18:56:13.1620,0.12,-0.01,0.15,0.19
2021-09-03 18:56:13.1860,0.07,0.04,0.25,0.26
2021-09-03 18:56:13.1880,0.03,0.09,0.22,0.23
2021-09-03 18:56:13.1910,-0.02,0.04,0.14,0.14
2021-09-03 18:56:13.2010,-0.02,0.06,0.05,0.08
2021-09-03 18:56:13.2110,0.0,0.14,0.03,0.14
2021-09-03 18:56:13.2210,-0.13,0.21,0.13,0.27
2021-09-03 18:56:13.2320,-0.33,0.16,0.19,0.41
2021-09-03 18:56:13.2410,-0.28,0.05,0.07,0.29
2021-09-03 18:56:13.2510,-0.1,0.03,-0.07,0.12
2021-09-03 18:56:13.2610,-0.01,-0.02,-0.19,0.19
2021-09-03 18:56:13.2860,0.06,-0.05,-0.27,0.28
2021-09-03 18:56:13.2870,0.18,-0.04,-0.24,0.3
2021-09-03 18:56:13.2900,0.24,-0.07,-0.23,0.33
2021-09-03 18:56:13.3010,0.21,-0.15,-0.18,0.31
2021-09-03 18:56:13.3110,0.05,-0.13,-0.12,0.18
2021-09-03 18:56:13.3210,-0.19,0.04,-0.04,0.19
2021-09-03 18:56:13.3310,-0.34,0.14,-0.03,0.36
2021-09-03 18:56:13.3410,-0.26,0.1,-0.13,0.3
2021-09-03 18:56:13.3510,-0.08,0.09,-0.26,0.28
2021-09-03 18:56:13.3610,-0.04,0.13,-0.35,0.37
2021-09-03 18:56:13.3850,-0.16,0.09,-0.4,0.44
2021-09-03 18:56:13.3870,-0.26,0.03,-0.38,0.46
2021-09-03 18:56:13.3900,-0.19,-0.05,-0.33,0.38
2021-09-03 18:56:13.4010,0.01,-0.13,-0.38,0.4
2021-09-03 18:56:13.4110,0.17,-0.17,-0.45,0.51
2021-09-03 18:56:13.4200,0.2,-0.2,-0.48,0.55
2021-09-03 18:56:13.4300,0.2,-0.2,-0.41,0.49
2021-09-03 18:56:13.4400,0.15,-0.25,-0.27,0.39
2021-09-03 18:56:13.4500,0.1,-0.18,-0.19,0.28
2021-09-03 18:56:13.4610,0.08,-0.04,-0.07,0.11
2021-09-03 18:56:13.4850,0.06,0.0,0.05,0.07
2021-09-03 18:56:13.4870,0.01,-0.01,0.1,0.1
2021-09-03 18:56:13.4900,0.04,0.04,0.09,0.1
2021-09-03 18:56:13.5010,0.09,0.07,0.12,0.16
2021-09-03 18:56:13.5100,0.08,0.07,0.14,0.17
2021-09-03 18:56:13.5200,0.11,0.08,0.09,0.16
2021-09-03 18:56:13.5310,0.15,0.09,0.02,0.17
2021-09-03 18:56:13.5400,0.14,0.05,0.03,0.15
2021-09-03 18:56:13.5500,0.12,0.02,0.09,0.15
2021-09-03 18:56:13.5600,0.14,0.02,0.14,0.19
2021-09-03 18:56:13.5850,0.17,0.01,0.17,0.24
2021-09-03 18:56:13.5860,0.16,-0.01,0.18,0.24
2021-09-03 18:56:13.5890,0.19,-0.01,0.19,0.26
2021-09-03 18:56:13.6000,0.14,0.04,0.27,0.3
2021-09-03 18:56:13.6100,0.0,0.03,0.33,0.33
2021-09-03 18:56:13.6200,-0.04,-0.03,0.31,0.31
2021-09-03 18:56:13.6300,0.14,-0.06,0.21,0.25
2021-09-03 18:56:13.6400,0.33,-0.06,0.11,0.35
2021-09-03 18:56:13.6500,0.23,-0.01,0.05,0.23
2021-09-03 18:56:13.6600,0.05,-0.03,0.09,0.1
2021-09-03 18:56:13.6840,0.05,-0.01,0.11,0.12
2021-09-03 18:56:13.6860,0.08,0.02,0.13,0.15
2021-09-03 18:56:13.6890,0.12,0.05,0.17,0.21
2021-09-03 18:56:13.7000,0.17,-0.01,0.07,0.18
2021-09-03 18:56:13.7100,0.08,-0.04,-0.17,0.19
2021-09-03 18:56:13.7190,-0.11,-0.01,-0.17,0.2
2021-09-03 18:56:13.7300,-0.21,0.02,-0.03,0.21
2021-09-03 18:56:13.7400,-0.16,0.01,-0.04,0.16
2021-09-03 18:56:13.7500,-0.07,0.0,-0.07,0.09
2021-09-03 18:56:13.7600,0.01,0.03,-0.11,0.11
2021-09-03 18:56:13.7820,-0.05,0.02,-0.09,0.1
2021-09-03 18:56:13.7830,-0.1,0.03,0.03,0.1
2021-09-03 18:56:13.7890,-0.02,0.03,0.05,0.06
2021-09-03 18:56:13.8000,0.09,-0.02,-0.09,0.12
2021-09-03 18:56:13.8090,0.03,-0.03,-0.15,0.15
2021-09-03 18:56:13.8190,-0.1,-0.03,-0.06,0.12
2021-09-03 18:56:13.8300,-0.06,0.01,-0.02,0.06
2021-09-03 18:56:13.8400,0.03,0.0,0.05,0.05
2021-09-03 18:56:13.8500,0.11,0.01,0.05,0.12
2021-09-03 18:56:13.8600,0.09,-0.02,-0.01,0.09
2021-09-03 18:56:13.8830,-0.06,0.04,0.06,0.09
2021-09-03 18:56:13.8840,-0.05,0.08,0.1,0.13
2021-09-03 18:56:13.8890,-0.01,0.02,0.11,0.11
2021-09-03 18:56:13.8990,0.08,0.03,0.11,0.13
2021-09-03 18:56:13.9090,0.13,0.03,0.02,0.13
2021-09-03 18:56:13.9190,0.05,0.01,-0.04,0.06
2021-09-03 18:56:13.9290,-0.05,0.03,-0.02,0.06
2021-09-03 18:56:13.9390,-0.07,0.03,-0.02,0.07
2021-09-03 18:56:13.9490,-0.04,0.03,-0.01,0.05
2021-09-03 18:56:13.9590,0.0,0.03,0.01,0.03
2021-09-03 18:56:13.9820,0.05,0.04,0.01,0.06
2021-09-03 18:56:13.9830,0.04,0.02,-0.03,0.05
2021-09-03 18:56:13.9880,0.01,-0.01,-0.06,0.06
2021-09-03 18:56:13.9990,-0.04,-0.01,-0.08,0.09
2021-09-03 18:56:14.0090,-0.08,0.03,-0.09,0.12
2021-09-03 18:56:14.0190,-0.08,0.04,-0.08,0.12
2021-09-03 18:56:14.0290,-0.05,0.0,-0.08,0.09
2021-09-03 18:56:14.0380,-0.03,-0.03,-0.09,0.09
2021-09-03 18:56:14.0490,-0.03,-0.03,-0.14,0.14
2021-09-03 18:56:14.0600,-0.05,-0.02,-0.18,0.18
2021-09-03 18:56:14.0850,-0.08,-0.01,-0.18,0.19
2021-09-03 18:56:14.0870,-0.14,-0.01,-0.16,0.21
2021-09-03 18:56:14.0880,-0.14,-0.01,-0.17,0.22
2021-09-03 18:56:14.0990,-0.09,0.0,-0.15,0.17
2021-09-03 18:56:14.1090,-0.05,0.0,-0.12,0.13
2021-09-03 18:56:14.1180,-0.03,-0.01,-0.09,0.09
2021-09-03 18:56:14.1290,-0.03,0.02,-0.04,0.05
2021-09-03 18:56:14.1380,-0.04,0.03,-0.02,0.05
2021-09-03 18:56:14.1490,0.01,0.02,-0.03,0.03
2021-09-03 18:56:14.1590,0.05,-0.01,-0.03,0.05
2021-09-03 18:56:14.1820,0.06,-0.02,-0.03,0.06
2021-09-03 18:56:14.1830,0.01,-0.01,-0.02,0.02
2021-09-03 18:56:14.1880,-0.07,0.04,0.02,0.08
2021-09-03 18:56:14.1980,0.0,0.05,0.03,0.05
2021-09-03 18:56:14.2090,0.06,0.01,0.01,0.06
2021-09-03 18:56:14.2180,0.07,0.01,-0.03,0.07
2021-09-03 18:56:14.2290,-0.01,0.04,0.01,0.04
2021-09-03 18:56:14.2380,-0.06,0.04,0.04,0.08
2021-09-03 18:56:14.2490,-0.04,0.01,0.02,0.04
2021-09-03 18:56:14.2590,-0.01,-0.06,0.02,0.06
2021-09-03 18:56:14.2820,0.06,-0.06,0.02,0.08
2021-09-03 18:56:14.2820,0.06,-0.01,0.02,0.06
2021-09-03 18:56:14.2870,0.02,0.01,0.02,0.03
2021-09-03 18:56:14.2980,-0.03,-0.03,-0.04,0.05
2021-09-03 18:56:14.3080,-0.09,-0.01,-0.02,0.09
2021-09-03 18:56:14.3180,-0.06,0.02,0.01,0.06
2021-09-03 18:56:14.3280,-0.04,0.0,0.03,0.05
2021-09-03 18:56:14.3380,-0.05,0.07,0.03,0.09
2021-09-03 18:56:14.3480,-0.03,0.05,0.0,0.05
2021-09-03 18:56:14.3580,0.04,0.03,0.0,0.05
2021-09-03 18:56:14.3820,0.0,0.03,0.0,0.03
2021-09-03 18:56:14.3830,-0.07,0.0,-0.02,0.07
2021-09-03 18:56:14.3870,-0.05,0.02,-0.03,0.06
2021-09-03 18:56:14.3980,0.06,-0.02,-0.05,0.08
2021-09-03 18:56:14.4080,0.04,-0.03,0.0,0.05
2021-09-03 18:56:14.4180,-0.01,-0.01,0.06,0.06
2021-09-03 18:56:14.4280,-0.01,-0.01,0.08,0.08
2021-09-03 18:56:14.4380,-0.03,0.03,0.06,0.07
2021-09-03 18:56:14.4480,0.01,0.07,0.03,0.07
2021-09-03 18:56:14.4580,0.03,0.01,0.0,0.03
2021-09-03 18:56:14.4820,-0.04,-0.04,0.0,0.05
2021-09-03 18:56:14.4830,-0.05,-0.01,0.0,0.05
2021-09-03 18:56:14.4870,-0.05,-0.02,-0.02,0.05
2021-09-03 18:56:14.4970,0.08,0.02,-0.04,0.09
2021-09-03 18:56:14.5070,0.08,0.01,-0.06,0.1
2021-09-03 18:56:14.5170,0.01,-0.04,-0.03,0.05
2021-09-03 18:56:14.5280,0.05,0.01,-0.03,0.05
2021-09-03 18:56:14.5370,0.02,0.08,-0.01,0.08
2021-09-03 18:56:14.5490,-0.06,0.05,0.0,0.07
2021-09-03 18:56:14.5570,-0.06,0.0,0.05,0.07
2021-09-03 18:56:14.5830,0.02,0.01,0.08,0.08
2021-09-03 18:56:14.5850,0.06,-0.01,0.1,0.11
2021-09-03 18:56:14.5870,0.07,0.0,0.09,0.11
2021-09-03 18:56:14.5970,0.03,0.0,0.07,0.07
2021-09-03 18:56:14.6070,0.04,-0.03,0.04,0.06
2021-09-03 18:56:14.6170,0.02,0.0,0.08,0.08
2021-09-03 18:56:14.6270,0.03,0.03,0.14,0.14
2021-09-03 18:56:14.6370,0.1,-0.01,0.14,0.17
2021-09-03 18:56:14.6470,0.11,-0.01,0.12,0.16
2021-09-03 18:56:14.6570,0.09,0.02,0.13,0.15
2021-09-03 18:56:14.6810,0.07,0.04,0.12,0.14
2021-09-03 18:56:14.6830,0.07,0.12,0.1,0.17
2021-09-03 18:56:14.6870,0.04,0.11,0.08,0.14
2021-09-03 18:56:14.6970,0.01,0.03,0.07,0.07
2021-09-03 18:56:14.7070,0.01,-0.02,0.08,0.08
2021-09-03 18:56:14.7170,0.02,-0.01,0.08,0.08
2021-09-03 18:56:14.7270,0.04,0.0,0.08,0.08
2021-09-03 18:56:14.7370,0.08,0.02,0.06,0.1
2021-09-03 18:56:14.7470,0.08,0.04,0.06,0.1
2021-09-03 18:56:14.7570,0.05,0.05,0.03,0.07
2021-09-03 18:56:14.7810,0.08,0.01,0.04,0.09
2021-09-03 18:56:14.7820,0.04,0.0,0.05,0.06
2021-09-03 18:56:14.7860,-0.04,-0.03,-0.13,0.13
2021-09-03 18:56:14.7960,-0.11,-0.05,-0.2,0.23
2021-09-03 18:56:14.8070,-0.12,-0.02,-0.18,0.21
2021-09-03 18:56:14.8160,-0.1,-0.03,-0.18,0.2
2021-09-03 18:56:14.8260,-0.1,0.0,-0.18,0.2
2021-09-03 18:56:14.8360,-0.08,-0.02,-0.16,0.18
2021-09-03 18:56:14.8470,-0.1,-0.05,-0.2,0.22
2021-09-03 18:56:14.8570,-0.11,0.01,-0.16,0.19
2021-09-03 18:56:14.8820,-0.08,0.08,-0.13,0.17
2021-09-03 18:56:14.8840,-0.07,0.09,-0.1,0.15
2021-09-03 18:56:14.8860,-0.07,0.1,-0.04,0.12
2021-09-03 18:56:14.8960,-0.05,0.15,-0.02,0.15
2021-09-03 18:56:14.9070,-0.04,0.13,-0.09,0.16
2021-09-03 18:56:14.9160,-0.06,0.05,-0.12,0.14
2021-09-03 18:56:14.9270,-0.07,0.03,-0.15,0.16
2021-09-03 18:56:14.9360,-0.06,0.0,-0.15,0.16
2021-09-03 18:56:14.9470,-0.11,-0.06,-0.18,0.21
2021-09-03 18:56:14.9560,-0.08,-0.12,-0.17,0.22
2021-09-03 18:56:14.9810,0.06,-0.13,-0.16,0.21
2021-09-03 18:56:14.9820,0.18,-0.12,-0.14,0.25
2021-09-03 18:56:14.9860,0.16,-0.11,-0.05,0.2
2021-09-03 18:56:14.9960,0.1,-0.09,0.07,0.15
2021-09-03 18:56:15.0060,0.22,-0.05,0.15,0.27
2021-09-03 18:56:15.0160,0.33,-0.03,0.22,0.39
2021-09-03 18:56:15.0260,0.35,-0.01,0.28,0.44
2021-09-03 18:56:15.0360,0.32,-0.03,0.36,0.48
2021-09-03 18:56:15.0460,0.24,0.0,0.43,0.49
2021-09-03 18:56:15.0560,0.22,0.1,0.39,0.45
2021-09-03 18:56:15.0800,0.24,0.11,0.37,0.45
2021-09-03 18:56:15.0810,0.18,0.11,0.36,0.41
2021-09-03 18:56:15.0850,0.24,0.1,0.35,0.43
2021-09-03 18:56:15.0960,0.26,0.04,0.35,0.43
2021-09-03 18:56:15.1060,0.2,0.01,0.33,0.38
2021-09-03 18:56:15.1160,0.24,0.03,0.34,0.41
2021-09-03 18:56:15.1260,0.2,0.02,0.34,0.39
2021-09-03 18:56:15.1350,0.12,-0.08,0.26,0.29
2021-09-03 18:56:15.1460,0.18,-0.03,0.24,0.3
2021-09-03 18:56:15.1560,0.21,0.09,0.26,0.34
2021-09-03 18:56:15.1790,0.16,0.08,0.31,0.35
2021-09-03 18:56:15.1800,0.12,0.02,0.36,0.38
2021-09-03 18:56:15.1850,0.12,0.06,0.44,0.46
2021-09-03 18:56:15.1960,0.19,0.03,0.49,0.52
2021-09-03 18:56:15.2050,0.34,-0.05,0.56,0.65
2021-09-03 18:56:15.2150,0.57,-0.05,0.67,0.88
2021-09-03 18:56:15.2250,0.81,-0.05,0.66,1.04
2021-09-03 18:56:15.2350,0.97,-0.03,0.6,1.14
2021-09-03 18:56:15.2460,1.06,0.01,0.55,1.19
2021-09-03 18:56:15.2560,0.96,-0.06,0.42,1.04
2021-09-03 18:56:15.2780,0.76,-0.13,0.39,0.86
2021-09-03 18:56:15.2790,0.79,-0.08,0.44,0.9
2021-09-03 18:56:15.2850,0.82,-0.04,0.45,0.93
2021-09-03 18:56:15.2950,0.96,-0.1,0.42,1.05
2021-09-03 18:56:15.3050,1.06,-0.12,0.42,1.14
2021-09-03 18:56:15.3150,1.04,-0.13,0.43,1.13
2021-09-03 18:56:15.3250,0.97,-0.17,0.42,1.07
2021-09-03 18:56:15.3350,0.83,-0.43,0.23,0.96
2021-09-03 18:56:15.3460,0.46,-0.61,-0.01,0.76
2021-09-03 18:56:15.3550,-0.08,-0.1,-0.34,0.36
2021-09-03 18:56:15.3790,-0.57,0.48,-0.52,0.9
2021-09-03 18:56:15.3800,-0.8,0.52,-0.73,1.2
2021-09-03 18:56:15.3850,-0.84,0.55,-0.86,1.32
2021-09-03 18:56:15.3950,-1.16,0.75,-1.02,1.71
2021-09-03 18:56:15.4050,-1.82,0.8,-1.37,2.41
2021-09-03 18:56:15.4150,-2.26,0.78,-1.67,2.91
2021-09-03 18:56:15.4250,-2.08,0.7,-1.6,2.71
2021-09-03 18:56:15.4350,-1.59,0.46,-1.23,2.06
2021-09-03 18:56:15.4450,-1.3,0.07,-0.78,1.51
2021-09-03 18:56:15.4550,-1.53,-0.33,-0.75,1.73
2021-09-03 18:56:15.4800,-1.58,-0.62,-0.93,1.93
2021-09-03 18:56:15.4820,-1.12,-0.4,-0.94,1.51
2021-09-03 18:56:15.4840,-0.96,-0.28,-1.08,1.47
2021-09-03 18:56:15.4950,-0.93,-0.41,-1.24,1.6
2021-09-03 18:56:15.5040,-0.77,-0.47,-1.14,1.45
2021-09-03 18:56:15.5150,-0.42,-0.5,-1.14,1.31
2021-09-03 18:56:15.5250,0.05,-0.65,-1.29,1.44
2021-09-03 18:56:15.5350,0.5,-0.94,-1.41,1.76
2021-09-03 18:56:15.5450,0.71,-1.17,-1.25,1.85
2021-09-03 18:56:15.5550,0.65,-1.53,-0.97,1.92
2021-09-03 18:56:15.5770,0.84,-1.72,-0.65,2.02
2021-09-03 18:56:15.5780,1.22,-1.37,-0.43,1.88
2021-09-03 18:56:15.5840,1.31,-0.92,-0.21,1.61
2021-09-03 18:56:15.5940,1.32,-0.8,0.0,1.54
2021-09-03 18:56:15.6050,1.47,-0.5,0.54,1.64
2021-09-03 18:56:15.6140,1.7,-0.12,1.0,1.97
2021-09-03 18:56:15.6240,1.81,-0.01,1.35,2.25
2021-09-03 18:56:15.6340,1.72,0.01,1.83,2.51
2021-09-03 18:56:15.6450,1.55,-0.01,2.34,2.8
2021-09-03 18:56:15.6550,1.25,-0.15,2.72,2.99
2021-09-03 18:56:15.6790,1.12,-0.27,2.86,3.08
2021-09-03 18:56:15.6800,1.18,-0.39,2.72,2.99
2021-09-03 18:56:15.6840,1.3,-0.34,2.4,2.75
2021-09-03 18:56:15.6950,1.76,-0.11,2.25,2.85
2021-09-03 18:56:15.7040,2.34,0.54,1.99,3.11
2021-09-03 18:56:15.7140,1.93,1.65,1.6,3.0
2021-09-03 18:56:15.7240,0.5,2.6,0.54,2.7
2021-09-03 18:56:15.7340,-0.55,2.9,-0.96,3.1
2021-09-03 18:56:15.7450,-0.22,2.99,-1.45,3.33
2021-09-03 18:56:15.7540,0.95,3.24,-0.55,3.42
2021-09-03 18:56:15.7780,0.86,3.04,0.88,3.27
2021-09-03 18:56:15.7800,-0.87,1.98,1.18,2.46
2021-09-03 18:56:15.7830,-2.03,0.56,1.38,2.51
2021-09-03 18:56:15.7940,-1.31,0.22,1.57,2.05
2021-09-03 18:56:15.8040,0.74,0.69,1.84,2.09
2021-09-03 18:56:15.8140,1.52,1.12,1.75,2.57
2021-09-03 18:56:15.8240,0.08,1.24,1.02,1.6
2021-09-03 18:56:15.8340,-1.74,0.51,0.82,1.99
2021-09-03 18:56:15.8440,-1.9,0.37,1.15,2.25
2021-09-03 18:56:15.8540,-0.88,-0.11,1.36,1.62
2021-09-03 18:56:15.8780,0.18,-2.09,1.69,2.69
2021-09-03 18:56:15.8790,0.1,-3.09,1.75,3.55
2021-09-03 18:56:15.8830,-0.56,-3.51,1.13,3.72
2021-09-03 18:56:15.8950,-0.66,-2.79,0.26,2.87
2021-09-03 18:56:15.9030,-0.7,-0.45,-0.3,0.88
2021-09-03 18:56:15.9130,-1.31,3.3,-0.59,3.59
2021-09-03 18:56:15.9240,-4.28,8.88,-1.27,9.93
2021-09-03 18:56:15.9340,-8.67,12.55,-3.04,15.55
2021-09-03 18:56:15.9440,-9.65,9.6,-4.69,14.39
2021-09-03 18:56:15.9540,-8.03,3.97,-6.07,10.82
2021-09-03 18:56:15.9770,-7.37,-1.64,-8.16,11.11
2021-09-03 18:56:15.9790,-7.07,-8.64,-10.91,15.6
2021-09-03 18:56:15.9830,-7.95,-11.74,-12.59,18.96
2021-09-03 18:56:15.9950,-8.68,-11.6,-13.23,19.61
2021-09-03 18:56:16.0030,-7.67,-12.12,-15.23,20.92
2021-09-03 18:56:16.0130,-4.16,-13.15,-17.56,22.32
2021-09-03 18:56:16.0230,-0.08,-15.62,-18.12,23.92
2021-09-03 18:56:16.0330,4.77,-20.52,-14.88,25.79
2021-09-03 18:56:16.0430,11.19,-23.03,-9.3,27.24
2021-09-03 18:56:16.0530,17.76,-19.99,-1.41,26.77
2021-09-03 18:56:16.0730,19.61,-12.27,2.73,23.29
2021-09-03 18:56:16.0750,14.14,-7.36,0.36,15.94
2021-09-03 18:56:16.0830,3.36,-4.68,0.38,5.77
2021-09-03 18:56:16.0960,-14.08,8.21,-1.36,16.35
2021-09-03 18:56:16.1030,-25.76,22.58,-0.64,34.26
2021-09-03 18:56:16.1130,-27.85,17.61,4.46,33.25
2021-09-03 18:56:16.1230,-14.28,2.48,10.66,17.99
2021-09-03 18:56:16.1330,-4.63,4.35,3.99,7.5
2021-09-03 18:56:16.1430,0.53,11.29,2.16,11.5
2021-09-03 18:56:16.1530,3.15,12.75,1.86,13.26
2021-09-03 18:56:16.1760,3.43,9.66,0.36,10.25
2021-09-03 18:56:16.1780,0.63,7.01,-0.61,7.06
2021-09-03 18:56:16.1820,-1.34,6.8,0.3,6.93
2021-09-03 18:56:16.1950,-1.42,7.71,2.57,8.25
2021-09-03 18:56:16.2020,-0.96,8.47,4.25,9.52
2021-09-03 18:56:16.2130,-0.75,8.74,4.55,9.88
2021-09-03 18:56:16.2230,-0.47,8.84,4.2,9.79
2021-09-03 18:56:16.2330,0.41,8.82,4.07,9.72
2021-09-03 18:56:16.2430,1.53,9.19,3.98,10.13
2021-09-03 18:56:16.2530,2.48,9.89,3.91,10.92
2021-09-03 18:56:16.2760,3.17,10.68,3.89,11.8
2021-09-03 18:56:16.2780,3.38,11.18,3.96,12.33
2021-09-03 18:56:16.2820,2.96,11.07,3.99,12.13
2021-09-03 18:56:16.2940,2.41,10.58,4.01,11.56
2021-09-03 18:56:16.3020,2.22,10.17,3.88,11.1
2021-09-03 18:56:16.3120,2.47,10.05,3.76,11.01
2021-09-03 18:56:16.3220,2.82,10.03,3.62,11.02
2021-09-03 18:56:16.3320,3.06,10.07,3.4,11.06
2021-09-03 18:56:16.3430,3.07,9.99,3.15,10.91
2021-09-03 18:56:16.3530,2.78,9.79,2.94,10.59
2021-09-03 18:56:16.3740,2.35,9.44,2.81,10.12
2021-09-03 18:56:16.3750,1.81,9.15,2.66,9.69
2021-09-03 18:56:16.3820,1.35,8.94,2.51,9.38
2021-09-03 18:56:16.3940,1.11,8.87,2.37,9.24
2021-09-03 18:56:16.4020,0.98,8.94,2.34,9.29
2021-09-03 18:56:16.4120,0.88,8.86,2.5,9.24
2021-09-03 18:56:16.4220,0.42,8.53,2.66,8.94
2021-09-03 18:56:16.4320,-6.58,11.21,-1.68,13.1
2021-09-03 18:56:16.4420,-35.94,27.31,-22.4,50.39
2021-09-03 18:56:16.4520,-67.0,17.1,-38.24,79.01
2021-09-03 18:56:16.4720,-30.9,-66.97,-7.32,74.11
2021-09-03 18:56:16.4740,16.24,-21.61,46.96,54.18
2021-09-03 18:56:16.4820,36.03,36.33,17.03,53.92
2021-09-03 18:56:16.4920,44.51,-48.85,-18.81,68.71
2021-09-03 18:56:16.5020,5.03,-44.62,10.37,46.08
2021-09-03 18:56:16.5120,-19.47,-14.64,-0.74,24.37
2021-09-03 18:56:16.5210,-20.78,-34.69,-16.1,43.52
2021-09-03 18:56:16.5320,-4.7,-21.86,-24.44,33.12
2021-09-03 18:56:16.5420,9.7,1.25,-17.12,19.71
2021-09-03 18:56:16.5520,7.3,10.15,-12.52,17.69
2021-09-03 18:56:16.5710,2.96,10.72,-11.95,16.32
2021-09-03 18:56:16.5730,0.59,8.7,-10.54,13.67
2021-09-03 18:56:16.5810,-0.72,8.03,-10.58,13.3
2021-09-03 18:56:16.5920,-3.38,7.49,-9.82,12.8
2021-09-03 18:56:16.6010,-5.91,7.88,-9.27,13.52
2021-09-03 18:56:16.6120,-4.98,7.15,-7.75,11.66
2021-09-03 18:56:16.6210,-3.25,5.43,-5.03,8.08
2021-09-03 18:56:16.6320,-3.28,2.36,-1.81,4.42
2021-09-03 18:56:16.6420,-3.72,-0.97,0.95,3.96
2021-09-03 18:56:16.6520,-3.54,-2.26,3.08,5.2
2021-09-03 18:56:16.6730,-2.56,-2.12,5.05,6.04
2021-09-03 18:56:16.6750,-2.07,-0.95,5.86,6.28
2021-09-03 18:56:16.6810,-2.49,-0.08,6.51,6.97
2021-09-03 18:56:16.6910,-3.33,1.07,7.41,8.19
2021-09-03 18:56:16.7010,-4.16,2.86,7.72,9.22
2021-09-03 18:56:16.7110,-4.44,3.47,7.4,9.3
2021-09-03 18:56:16.7210,-3.95,3.56,6.6,8.47
2021-09-03 18:56:16.7320,-3.59,3.58,6.43,8.18
2021-09-03 18:56:16.7420,-3.95,2.19,6.37,7.8
2021-09-03 18:56:16.7510,-2.28,0.87,4.17,4.83
2021-09-03 18:56:16.7730,1.98,-0.02,-0.32,2.0
2021-09-03 18:56:16.7760,7.66,-1.67,-7.5,10.84
2021-09-03 18:56:16.7810,11.95,-5.23,-9.77,16.29
2021-09-03 18:56:16.7910,14.84,-7.02,-8.59,18.52
2021-09-03 18:56:16.8010,12.43,-3.08,-5.29,13.85
2021-09-03 18:56:16.8110,5.92,0.1,-2.29,6.34
2021-09-03 18:56:16.8210,0.32,0.43,0.36,0.64
2021-09-03 18:56:16.8310,-2.82,0.63,3.6,4.61
2021-09-03 18:56:16.8410,-2.76,0.77,5.03,5.78
2021-09-03 18:56:16.8510,-1.55,0.35,4.23,4.51
2021-09-03 18:56:16.8740,-1.4,-0.22,3.47,3.74
2021-09-03 18:56:16.8760,-1.79,-0.91,2.62,3.3
2021-09-03 18:56:16.8800,-0.85,-1.12,1.19,1.84
2021-09-03 18:56:16.8940,0.53,-0.94,0.88,1.39
2021-09-03 18:56:16.9010,0.21,-0.83,0.71,1.11
2021-09-03 18:56:16.9110,-0.76,-0.82,0.38,1.18
2021-09-03 18:56:16.9210,-1.07,-0.15,0.86,1.38
2021-09-03 18:56:16.9310,-0.92,0.24,2.06,2.26
2021-09-03 18:56:16.9410,-0.25,0.07,2.28,2.29
2021-09-03 18:56:16.9510,0.95,0.08,1.82,2.05
2021-09-03 18:56:16.9760,1.59,0.27,0.92,1.85
2021-09-03 18:56:16.9780,1.82,0.24,-0.28,1.85
2021-09-03 18:56:16.9800,1.82,0.3,-1.19,2.19
2021-09-03 18:56:16.9940,1.59,0.47,-1.74,2.4
2021-09-03 18:56:17.0000,0.79,0.76,-1.9,2.19
2021-09-03 18:56:17.0110,-0.42,0.87,-1.61,1.87
2021-09-03 18:56:17.0200,-1.4,0.6,-1.14,1.9
2021-09-03 18:56:17.0310,-1.42,0.24,-0.67,1.58
2021-09-03 18:56:17.0400,-0.66,0.1,-0.15,0.68
2021-09-03 18:56:17.0510,0.06,0.2,0.33,0.39
2021-09-03 18:56:17.0770,0.32,0.3,0.54,0.69
2021-09-03 18:56:17.0790,0.16,0.07,0.41,0.44
2021-09-03 18:56:17.0800,0.1,-0.22,0.09,0.25
2021-09-03 18:56:17.0930,0.3,-0.16,-0.08,0.34
2021-09-03 18:56:17.1000,0.53,-0.04,0.05,0.53
2021-09-03 18:56:17.1100,0.67,-0.02,0.28,0.72
2021-09-03 18:56:17.1200,0.69,0.06,0.45,0.82
2021-09-03 18:56:17.1300,0.58,0.06,0.33,0.67
2021-09-03 18:56:17.1400,0.34,-0.08,-0.1,0.36
2021-09-03 18:56:17.1500,0.13,-0.15,-0.6,0.63
2021-09-03 18:56:17.1710,-0.09,-0.03,-0.86,0.86
2021-09-03 18:56:17.1730,-0.43,0.02,-0.81,0.91
2021-09-03 18:56:17.1800,-0.72,-0.09,-0.52,0.89
2021-09-03 18:56:17.1900,-0.83,-0.13,-0.23,0.87
2021-09-03 18:56:17.2000,-0.77,0.11,-0.03,0.77
2021-09-03 18:56:17.2100,-0.47,0.35,0.02,0.58
2021-09-03 18:56:17.2190,-0.03,0.4,0.07,0.4
2021-09-03 18:56:17.2300,0.34,0.34,0.09,0.48
2021-09-03 18:56:17.2400,0.62,0.23,-0.06,0.66
2021-09-03 18:56:17.2500,0.81,0.11,-0.22,0.84
2021-09-03 18:56:17.2710,0.86,-0.03,-0.25,0.89
2021-09-03 18:56:17.2730,0.85,-0.11,-0.18,0.87
2021-09-03 18:56:17.2790,0.78,-0.11,0.08,0.79
2021-09-03 18:56:17.2900,0.56,-0.14,0.54,0.79
2021-09-03 18:56:17.3000,0.21,-0.17,0.91,0.94
2021-09-03 18:56:17.3100,-0.05,-0.1,1.08,1.08
2021-09-03 18:56:17.3190,-0.16,0.1,1.0,1.01
2021-09-03 18:56:17.3300,-0.19,0.1,0.74,0.77
2021-09-03 18:56:17.3390,-0.05,-0.08,0.42,0.43
2021-09-03 18:56:17.3500,0.04,-0.17,-0.09,0.19
2021-09-03 18:56:17.3690,-0.12,-0.14,-0.44,0.47
2021-09-03 18:56:17.3710,-0.37,-0.04,-0.62,0.72
2021-09-03 18:56:17.3790,-0.64,0.08,-0.69,0.94
2021-09-03 18:56:17.3900,-0.73,0.01,-0.73,1.03
2021-09-03 18:56:17.3990,-0.55,0.07,-0.73,0.91
2021-09-03 18:56:17.4100,-0.25,0.21,-0.46,0.56
2021-09-03 18:56:17.4190,-0.15,0.14,-0.24,0.31
2021-09-03 18:56:17.4300,-0.34,-0.01,-0.35,0.48
2021-09-03 18:56:17.4390,-0.71,0.0,-0.57,0.91
2021-09-03 18:56:17.4500,-0.83,0.15,-0.72,1.1
2021-09-03 18:56:17.4720,-0.75,0.04,-0.82,1.11
2021-09-03 18:56:17.4740,-0.6,-0.14,-0.98,1.15
2021-09-03 18:56:17.4790,-0.36,-0.16,-1.09,1.15
2021-09-03 18:56:17.4890,-0.23,0.04,-1.16,1.18
2021-09-03 18:56:17.4990,-0.25,0.13,-1.01,1.04
2021-09-03 18:56:17.5090,-0.19,0.05,-0.87,0.89
2021-09-03 18:56:17.5190,-0.09,0.0,-0.79,0.79
2021-09-03 18:56:17.5290,-0.08,0.02,-0.7,0.7
2021-09-03 18:56:17.5390,-0.1,-0.05,-0.62,0.63
2021-09-03 18:56:17.5490,-0.18,-0.08,-0.55,0.58
2021-09-03 18:56:17.5710,-0.21,-0.03,-0.57,0.6
2021-09-03 18:56:17.5730,-0.23,0.08,-0.53,0.58
2021-09-03 18:56:17.5790,-0.34,0.16,-0.42,0.56
2021-09-03 18:56:17.5890,-0.5,0.01,-0.32,0.59
2021-09-03 18:56:17.5990,-0.59,-0.15,-0.32,0.68
2021-09-03 18:56:17.6090,-0.54,-0.19,-0.28,0.63
2021-09-03 18:56:17.6190,-0.32,0.05,-0.18,0.37
2021-09-03 18:56:17.6290,-0.07,0.31,-0.09,0.33
2021-09-03 18:56:17.6390,0.11,0.27,-0.02,0.29
2021-09-03 18:56:17.6490,0.2,0.16,0.04,0.25
2021-09-03 18:56:17.6720,0.05,0.08,0.06,0.11
2021-09-03 18:56:17.6740,-0.23,0.03,0.14,0.27
2021-09-03 18:56:17.6780,-0.49,0.04,0.15,0.51
2021-09-03 18:56:17.6890,-0.44,0.03,0.16,0.46
2021-09-03 18:56:17.6990,-0.15,0.06,0.14,0.21
2021-09-03 18:56:17.7090,-0.02,0.13,0.18,0.22
2021-09-03 18:56:17.7180,0.01,0.24,0.33,0.4
2021-09-03 18:56:17.7290,0.11,0.23,0.24,0.35
2021-09-03 18:56:17.7380,0.2,0.13,0.2,0.31
2021-09-03 18:56:17.7490,0.29,0.06,0.27,0.4
2021-09-03 18:56:17.7700,0.4,-0.01,0.27,0.48
2021-09-03 18:56:17.7720,0.36,-0.02,0.34,0.49
2021-09-03 18:56:17.7780,0.23,0.01,0.58,0.62
2021-09-03 18:56:17.7880,0.32,0.12,0.88,0.94
2021-09-03 18:56:17.7980,0.55,0.23,1.08,1.23
2021-09-03 18:56:17.8080,0.7,0.24,1.17,1.38
2021-09-03 18:56:17.8180,0.72,0.15,1.19,1.39
2021-09-03 18:56:17.8290,0.66,0.15,1.14,1.32
2021-09-03 18:56:17.8380,0.49,0.16,1.05,1.16
2021-09-03 18:56:17.8490,0.25,0.13,0.86,0.9
2021-09-03 18:56:17.8700,0.11,0.17,0.59,0.62
2021-09-03 18:56:17.8720,0.05,0.12,0.4,0.42
2021-09-03 18:56:17.8780,0.07,-0.05,0.25,0.26
2021-09-03 18:56:17.8880,0.21,-0.11,0.03,0.23
2021-09-03 18:56:17.8980,0.27,-0.07,-0.09,0.29
2021-09-03 18:56:17.9080,0.12,0.0,-0.05,0.13
2021-09-03 18:56:17.9180,-0.02,0.04,0.01,0.04
2021-09-03 18:56:17.9280,-0.08,0.05,0.05,0.1
2021-09-03 18:56:17.9380,-0.12,0.01,0.04,0.12
2021-09-03 18:56:17.9480,-0.08,-0.02,0.05,0.09
2021-09-03 18:56:17.9690,0.08,0.03,0.05,0.09
2021-09-03 18:56:17.9710,0.21,0.03,-0.02,0.21
2021-09-03 18:56:17.9780,0.16,-0.05,-0.14,0.21
2021-09-03 18:56:17.9870,0.11,-0.05,-0.2,0.23
2021-09-03 18:56:17.9980,0.08,0.03,-0.25,0.26
2021-09-03 18:56:18.0080,0.09,0.01,-0.25,0.26
2021-09-03 18:56:18.0180,0.0,-0.07,-0.21,0.22
2021-09-03 18:56:18.0280,-0.09,-0.04,-0.13,0.16
2021-09-03 18:56:18.0370,-0.09,0.05,-0.08,0.13
2021-09-03 18:56:18.0480,0.0,0.06,-0.05,0.07
2021-09-03 18:56:18.0690,0.15,0.01,-0.03,0.15
2021-09-03 18:56:18.0710,0.19,0.0,0.02,0.19
2021-09-03 18:56:18.0770,0.06,0.09,0.06,0.12
2021-09-03 18:56:18.0880,-0.06,0.14,0.03,0.15
2021-09-03 18:56:18.0980,-0.17,0.03,-0.06,0.18
2021-09-03 18:56:18.1080,-0.21,-0.08,-0.19,0.29
2021-09-03 18:56:18.1170,-0.13,-0.04,-0.27,0.3
2021-09-03 18:56:18.1270,-0.05,0.02,-0.27,0.27
2021-09-03 18:56:18.1370,-0.06,-0.02,-0.27,0.27
2021-09-03 18:56:18.1480,-0.18,-0.05,-0.21,0.28
2021-09-03 18:56:18.1680,-0.28,-0.03,-0.15,0.31
2021-09-03 18:56:18.1690,-0.24,0.0,-0.11,0.26
2021-09-03 18:56:18.1770,-0.13,0.04,-0.1,0.16
2021-09-03 18:56:18.1870,-0.03,0.06,-0.11,0.12
2021-09-03 18:56:18.1970,0.0,0.09,-0.07,0.11
2021-09-03 18:56:18.2070,-0.07,0.07,-0.04,0.1
2021-09-03 18:56:18.2170,-0.13,0.02,-0.05,0.14
2021-09-03 18:56:18.2270,-0.12,0.0,-0.07,0.13
2021-09-03 18:56:18.2370,-0.01,0.02,-0.05,0.05
2021-09-03 18:56:18.2470,0.04,0.01,0.02,0.04
2021-09-03 18:56:18.2680,0.07,0.0,0.07,0.09
2021-09-03 18:56:18.2690,0.09,0.04,0.05,0.11
2021-09-03 18:56:18.2770,0.08,0.04,0.04,0.09
2021-09-03 18:56:18.2870,0.04,-0.01,0.13,0.13
2021-09-03 18:56:18.2970,0.0,-0.01,0.18,0.18
2021-09-03 18:56:18.3070,0.02,0.06,0.16,0.17
2021-09-03 18:56:18.3170,0.05,0.05,0.15,0.16
2021-09-03 18:56:18.3270,0.05,-0.03,0.2,0.2
2021-09-03 18:56:18.3370,0.13,-0.06,0.2,0.24
2021-09-03 18:56:18.3470,0.25,0.07,0.25,0.36
2021-09-03 18:56:18.3700,0.37,0.13,0.3,0.49
2021-09-03 18:56:18.3710,0.37,0.11,0.28,0.47
2021-09-03 18:56:18.3760,0.32,0.01,0.34,0.46
2021-09-03 18:56:18.3860,0.36,0.11,0.36,0.52
2021-09-03 18:56:18.3970,0.34,0.13,0.44,0.57
2021-09-03 18:56:18.4070,0.32,0.1,0.47,0.57
2021-09-03 18:56:18.4160,0.38,0.05,0.52,0.64
2021-09-03 18:56:18.4270,0.44,0.07,0.51,0.67
2021-09-03 18:56:18.4360,0.49,0.08,0.49,0.69
2021-09-03 18:56:18.4470,0.52,0.07,0.59,0.78
2021-09-03 18:56:18.4680,0.69,0.08,0.77,1.03
2021-09-03 18:56:18.4700,0.64,0.04,0.75,0.98
2021-09-03 18:56:18.4760,0.31,-0.07,0.51,0.6
2021-09-03 18:56:18.4860,0.18,-0.1,0.5,0.54
2021-09-03 18:56:18.4960,0.4,0.07,0.83,0.92
2021-09-03 18:56:18.5060,0.8,0.1,1.05,1.32
2021-09-03 18:56:18.5160,1.16,-0.06,1.36,1.78
2021-09-03 18:56:18.5260,1.45,-0.16,1.64,2.19
2021-09-03 18:56:18.5360,1.86,-0.1,1.75,2.55
2021-09-03 18:56:18.5470,2.27,-0.08,1.57,2.76
2021-09-03 18:56:18.5680,2.01,-0.27,1.03,2.27
2021-09-03 18:56:18.5690,1.64,-0.37,0.72,1.82
2021-09-03 18:56:18.5760,1.62,-0.32,0.97,1.91
2021-09-03 18:56:18.5860,1.0,-0.4,1.13,1.56
2021-09-03 18:56:18.5960,0.13,-0.58,0.98,1.14
2021-09-03 18:56:18.6060,-0.27,-0.85,0.31,0.94
2021-09-03 18:56:18.6160,-0.44,-1.02,-0.5,1.21
2021-09-03 18:56:18.6260,-0.28,-0.31,-0.66,0.78
2021-09-03 18:56:18.6360,-0.88,0.2,-0.44,1.0
2021-09-03 18:56:18.6460,-1.6,-0.21,-1.09,1.94
2021-09-03 18:56:18.6670,-2.28,-0.24,-2.44,3.34
2021-09-03 18:56:18.6690,-3.28,0.41,-3.55,4.85
2021-09-03 18:56:18.6750,-3.88,1.18,-4.27,5.88
2021-09-03 18:56:18.6860,-3.93,0.95,-4.25,5.86
2021-09-03 18:56:18.6960,-3.0,-0.48,-3.71,4.79
2021-09-03 18:56:18.7050,-1.49,-1.55,-3.0,3.69
2021-09-03 18:56:18.7160,-0.36,-2.25,-2.59,3.44
2021-09-03 18:56:18.7260,0.39,-2.73,-2.47,3.7
2021-09-03 18:56:18.7360,0.79,-2.71,-2.17,3.56
2021-09-03 18:56:18.7460,1.09,-2.27,-1.65,3.01
2021-09-03 18:56:18.7700,1.17,-1.62,-0.95,2.21
2021-09-03 18:56:18.7720,1.06,-0.82,-0.25,1.36
2021-09-03 18:56:18.7760,0.96,0.03,0.25,0.99
2021-09-03 18:56:18.7860,0.76,0.71,0.77,1.29
2021-09-03 18:56:18.7950,0.52,1.15,1.37,1.86
2021-09-03 18:56:18.8050,0.37,1.52,1.93,2.48
2021-09-03 18:56:18.8150,0.35,1.86,2.42,3.07
2021-09-03 18:56:18.8260,0.41,2.07,2.93,3.61
2021-09-03 18:56:18.8350,0.35,2.09,2.86,3.55
2021-09-03 18:56:18.8460,-0.13,1.99,2.27,3.02
2021-09-03 18:56:18.8670,-0.1,2.64,3.69,4.53
2021-09-03 18:56:18.8690,1.33,4.45,4.82,6.69
2021-09-03 18:56:18.8750,2.39,5.01,4.58,7.19
2021-09-03 18:56:18.8850,2.25,3.7,3.91,5.83
2021-09-03 18:56:18.8950,1.9,1.18,1.94,2.96
2021-09-03 18:56:18.9050,2.48,-0.83,-0.34,2.63
2021-09-03 18:56:18.9150,3.42,-1.6,-0.64,3.82
2021-09-03 18:56:18.9250,3.63,-1.42,0.69,3.95
2021-09-03 18:56:18.9350,1.55,-0.68,1.53,2.28
2021-09-03 18:56:18.9450,-1.37,-0.69,1.19,1.94
2021-09-03 18:56:18.9660,-1.93,-0.53,1.12,2.29
2021-09-03 18:56:18.9670,0.62,2.02,1.07,2.36
2021-09-03 18:56:18.9750,1.37,3.41,-0.26,3.68
2021-09-03 18:56:18.9850,-0.02,1.67,-2.0,2.6
2021-09-03 18:56:18.9950,-0.34,2.82,-1.8,3.36
2021-09-03 18:56:19.0050,-2.03,5.37,-0.9,5.81
2021-09-03 18:56:19.0150,-3.76,3.97,-0.9,5.54
2021-09-03 18:56:19.0250,-3.63,2.36,-0.69,4.38
2021-09-03 18:56:19.0350,-3.42,2.44,-0.34,4.21
2021-09-03 18:56:19.0460,-3.18,0.72,-0.74,3.34
2021-09-03 18:56:19.0670,-2.91,-1.35,-1.21,3.42
2021-09-03 18:56:19.0690,-3.68,-0.35,-2.63,4.53
2021-09-03 18:56:19.0740,-4.3,-0.02,-4.48,6.2
2021-09-03 18:56:19.0850,-4.9,-0.44,-5.46,7.34
2021-09-03 18:56:19.0950,-6.2,-1.85,-7.09,9.59
2021-09-03 18:56:19.1040,-7.41,-2.77,-9.16,12.1
2021-09-03 18:56:19.1150,-7.71,-4.22,-11.17,14.21
2021-09-03 18:56:19.1250,-8.3,-5.71,-12.2,15.82
2021-09-03 18:56:19.1350,-8.51,-7.98,-12.89,17.38
2021-09-03 18:56:19.1450,-6.94,-11.37,-13.35,18.85
2021-09-03 18:56:19.1680,-4.21,-15.26,-12.87,20.4
2021-09-03 18:56:19.1700,-0.19,-19.79,-10.38,22.34
2021-09-03 18:56:19.1740,5.98,-22.87,-6.51,24.51
2021-09-03 18:56:19.1840,13.58,-21.35,-1.57,25.35
2021-09-03 18:56:19.1940,18.24,-16.83,5.07,25.33
2021-09-03 18:56:19.2040,18.0,-9.47,4.41,20.81
2021-09-03 18:56:19.2150,13.5,-4.71,-1.08,14.33
2021-09-03 18:56:19.2250,1.79,-3.44,-0.78,3.95
2021-09-03 18:56:19.2340,-12.69,4.27,-0.22,13.39
2021-09-03 18:56:19.2450,-25.29,21.04,2.71,33.0
2021-09-03 18:56:19.2670,-26.17,19.8,7.67,33.7
2021-09-03 18:56:19.2680,-11.43,2.78,10.72,15.91
2021-09-03 18:56:19.2740,-2.96,2.0,2.91,4.6
2021-09-03 18:56:19.2840,2.31,7.51,1.95,8.09
2021-09-03 18:56:19.2940,5.19,10.17,2.64,11.71
2021-09-03 18:56:19.3040,4.77,7.86,1.69,9.34
2021-09-03 18:56:19.3140,1.41,5.46,0.83,5.69
2021-09-03 18:56:19.3240,-0.9,5.27,1.56,5.56
2021-09-03 18:56:19.3340,-1.2,6.22,3.01,7.01
2021-09-03 18:56:19.3440,-0.12,7.68,3.77,8.55
2021-09-03 18:56:19.3650,1.74,9.19,4.01,10.17
2021-09-03 18:56:19.3660,3.41,10.47,3.91,11.68
2021-09-03 18:56:19.3730,4.13,11.28,3.85,12.61
2021-09-03 18:56:19.3840,4.25,11.32,4.1,12.76
2021-09-03 18:56:19.3940,4.32,11.78,3.67,13.07
2021-09-03 18:56:19.4040,4.16,12.43,3.26,13.5
2021-09-03 18:56:19.4140,3.47,12.47,3.05,13.29
2021-09-03 18:56:19.4240,2.52,11.79,2.91,12.4
2021-09-03 18:56:19.4340,1.78,11.01,2.86,11.51
2021-09-03 18:56:19.4450,1.46,10.61,2.82,11.07
2021-09-03 18:56:19.4660,1.72,10.36,2.98,10.91
2021-09-03 18:56:19.4680,2.38,10.12,3.01,10.82
2021-09-03 18:56:19.4730,3.11,9.94,2.78,10.77
2021-09-03 18:56:19.4840,3.49,9.82,2.19,10.64
2021-09-03 18:56:19.4940,3.16,9.58,1.41,10.18
2021-09-03 18:56:19.5030,2.23,9.14,0.73,9.43
2021-09-03 18:56:19.5140,1.29,8.72,0.28,8.81
2021-09-03 18:56:19.5230,0.5,8.34,0.45,8.36
2021-09-03 18:56:19.5330,-0.52,8.15,1.2,8.25
2021-09-03 18:56:19.5440,-1.54,8.13,1.84,8.47
2021-09-03 18:56:19.5640,-1.57,8.33,2.29,8.78
2021-09-03 18:56:19.5660,-9.01,11.56,-1.45,14.72
2021-09-03 18:56:19.5730,-46.12,30.77,-27.48,61.87
2021-09-03 18:56:19.5830,-71.81,13.74,-40.65,83.65
2021-09-03 18:56:19.5930,-23.57,-69.4,-8.32,73.76
2021-09-03 18:56:19.6030,23.57,-12.26,54.0,60.18
2021-09-03 18:56:19.6130,32.44,38.72,-1.72,50.54
2021-09-03 18:56:19.6230,46.12,-40.7,-14.1,63.1
2021-09-03 18:56:19.6330,4.59,-29.43,11.66,31.98
2021-09-03 18:56:19.6430,-23.4,-10.59,-0.92,25.7
2021-09-03 18:56:19.6630,-23.55,-34.87,-23.34,48.11
2021-09-03 18:56:19.6650,-2.83,-34.97,-26.3,43.84
2021-09-03 18:56:19.6730,14.16,-7.21,-10.69,19.15
2021-09-03 18:56:19.6830,12.19,8.67,-4.2,15.53
2021-09-03 18:56:19.6930,2.94,10.48,-9.72,14.59
2021-09-03 18:56:19.7030,-6.46,2.13,-10.97,12.9
2021-09-03 18:56:19.7130,-7.42,0.24,-10.96,13.23
2021-09-03 18:56:19.7230,-5.27,0.2,-9.12,10.53
2021-09-03 18:56:19.7330,-2.56,0.47,-7.1,7.56
2021-09-03 18:56:19.7430,-0.6,1.0,-3.61,3.79
2021-09-03 18:56:19.7650,-0.45,0.76,-1.39,1.64
2021-09-03 18:56:19.7660,-0.88,-0.3,-0.09,0.93
2021-09-03 18:56:19.7720,-0.7,-0.95,1.21,1.69
2021-09-03 18:56:19.7830,-0.3,-0.85,2.41,2.57
2021-09-03 18:56:19.7930,-0.08,-0.3,3.46,3.47
2021-09-03 18:56:19.8020,-0.04,0.68,4.43,4.48
2021-09-03 18:56:19.8130,0.1,1.71,4.89,5.18
2021-09-03 18:56:19.8220,0.13,2.47,4.59,5.21
2021-09-03 18:56:19.8330,-0.54,3.07,4.16,5.19
2021-09-03 18:56:19.8430,-1.56,3.78,3.68,5.5
2021-09-03 18:56:19.8640,-2.49,4.51,3.1,6.01
2021-09-03 18:56:19.8660,-3.15,4.9,2.73,6.43
2021-09-03 18:56:19.8720,-3.37,5.22,2.22,6.59
2021-09-03 18:56:19.8820,-2.51,5.31,1.37,6.03
2021-09-03 18:56:19.8920,-0.77,4.89,0.58,4.98
2021-09-03 18:56:19.9020,1.0,4.06,0.01,4.18
2021-09-03 18:56:19.9130,2.35,3.38,-0.16,4.11
2021-09-03 18:56:19.9220,2.73,3.12,-0.1,4.14
2021-09-03 18:56:19.9330,1.79,2.92,-0.5,3.46
2021-09-03 18:56:19.9430,0.43,2.23,-1.21,2.57
2021-09-03 18:56:19.9640,-0.33,1.45,-0.96,1.77
2021-09-03 18:56:19.9660,-0.69,1.46,-0.42,1.66
2021-09-03 18:56:19.9720,-0.79,1.19,-0.25,1.45
2021-09-03 18:56:19.9820,-0.02,0.42,0.13,0.44
2021-09-03 18:56:19.9920,1.31,-0.08,1.05,1.68
2021-09-03 18:56:20.0020,1.86,-0.76,1.06,2.27
2021-09-03 18:56:20.0120,1.09,-2.14,0.86,2.55
2021-09-03 18:56:20.0220,-0.55,-2.9,0.79,3.05
2021-09-03 18:56:20.0320,-1.64,-2.7,1.03,3.32
2021-09-03 18:56:20.0430,-1.21,-2.13,1.47,2.85
2021-09-03 18:56:20.0640,0.27,-1.84,1.81,2.59
2021-09-03 18:56:20.0650,0.99,-1.91,1.5,2.62
2021-09-03 18:56:20.0720,0.21,-2.33,0.4,2.37
2021-09-03 18:56:20.0820,-0.45,-3.98,-1.13,4.16
2021-09-03 18:56:20.0920,0.45,-4.75,-2.9,5.58
2021-09-03 18:56:20.1020,1.89,-3.23,-3.53,5.14
2021-09-03 18:56:20.1120,2.08,-1.65,-3.12,4.09
2021-09-03 18:56:20.1220,1.07,-0.35,-2.66,2.88
2021-09-03 18:56:20.1320,-0.6,0.82,-2.16,2.38
2021-09-03 18:56:20.1430,-1.73,1.39,-1.68,2.78
2021-09-03 18:56:20.1660,-1.77,1.55,-1.17,2.62
2021-09-03 18:56:20.1680,-1.62,1.36,-0.67,2.21
2021-09-03 18:56:20.1710,-1.62,0.82,-0.33,1.84
2021-09-03 18:56:20.1820,-1.51,0.49,-0.15,1.59
2021-09-03 18:56:20.1920,-1.21,0.39,0.03,1.27
2021-09-03 18:56:20.2010,-0.8,0.21,0.23,0.85
2021-09-03 18:56:20.2120,-0.49,0.16,0.45,0.68
2021-09-03 18:56:20.2210,-0.14,-0.07,0.55,0.57
2021-09-03 18:56:20.2320,0.44,-0.3,0.53,0.75
2021-09-03 18:56:20.2420,0.79,-0.55,0.51,1.08
2021-09-03 18:56:20.2650,0.75,-0.64,0.24,1.01
2021-09-03 18:56:20.2670,0.65,-0.42,-0.05,0.77
2021-09-03 18:56:20.2710,0.82,-0.17,-0.17,0.85
2021-09-03 18:56:20.2810,1.07,-0.17,0.11,1.08
2021-09-03 18:56:20.2910,0.98,-0.3,0.31,1.07
2021-09-03 18:56:20.3010,0.75,-0.29,0.39,0.89
2021-09-03 18:56:20.3110,0.37,-0.12,0.58,0.69
2021-09-03 18:56:20.3210,0.07,0.0,0.79,0.79
2021-09-03 18:56:20.3320,0.31,0.03,0.8,0.85
2021-09-03 18:56:20.3410,0.42,0.06,0.8,0.9
2021-09-03 18:56:20.3620,0.07,0.11,0.9,0.9
2021-09-03 18:56:20.3630,-0.29,0.12,0.63,0.7
2021-09-03 18:56:20.3710,-0.38,0.14,0.19,0.44
2021-09-03 18:56:20.3810,-0.16,0.17,0.1,0.25
2021-09-03 18:56:20.3910,0.0,0.15,0.18,0.23
2021-09-03 18:56:20.4010,0.07,0.16,0.04,0.17
2021-09-03 18:56:20.4110,0.2,0.11,-0.19,0.29
2021-09-03 18:56:20.4210,0.14,0.16,-0.16,0.26
2021-09-03 18:56:20.4310,-0.19,0.25,0.07,0.32
2021-09-03 18:56:20.4410,-0.63,0.27,0.18,0.7
2021-09-03 18:56:20.4630,-0.71,0.26,0.06,0.75
2021-09-03 18:56:20.4650,-0.18,0.25,-0.22,0.37
2021-09-03 18:56:20.4700,0.51,0.07,-0.32,0.6
2021-09-03 18:56:20.4810,0.55,-0.07,-0.36,0.66
2021-09-03 18:56:20.4910,0.08,-0.13,-0.57,0.59
2021-09-03 18:56:20.5010,-0.26,-0.02,-0.7,0.74
2021-09-03 18:56:20.5110,-0.52,0.01,-0.35,0.62
2021-09-03 18:56:20.5210,-0.71,-0.19,0.05,0.73
2021-09-03 18:56:20.5310,-0.69,-0.13,0.11,0.71
2021-09-03 18:56:20.5410,-0.42,0.0,0.04,0.42
2021-09-03 18:56:20.5630,-0.05,0.05,-0.01,0.07
2021-09-03 18:56:20.5650,0.2,0.04,0.05,0.21
2021-09-03 18:56:20.5700,0.2,0.04,0.16,0.25
2021-09-03 18:56:20.5800,0.01,0.04,0.2,0.2
2021-09-03 18:56:20.5900,-0.18,-0.02,0.24,0.3
2021-09-03 18:56:20.6000,-0.33,0.08,0.17,0.37
2021-09-03 18:56:20.6110,-0.22,0.17,-0.03,0.27
2021-09-03 18:56:20.6200,-0.04,0.12,-0.12,0.17
2021-09-03 18:56:20.6310,-0.05,0.02,-0.11,0.12
2021-09-03 18:56:20.6400,-0.05,-0.07,-0.14,0.16
2021-09-03 18:56:20.6630,-0.06,0.1,-0.2,0.23
2021-09-03 18:56:20.6640,-0.1,0.2,-0.38,0.44
2021-09-03 18:56:20.6700,-0.02,0.16,-0.51,0.53
2021-09-03 18:56:20.6800,-0.05,0.1,-0.23,0.25
2021-09-03 18:56:20.6900,-0.43,0.09,-0.03,0.44
2021-09-03 18:56:20.7000,-0.54,0.02,-0.22,0.58
2021-09-03 18:56:20.7100,-0.27,0.07,-0.51,0.58
2021-09-03 18:56:20.7200,0.07,0.02,-0.56,0.56
2021-09-03 18:56:20.7300,0.09,-0.06,-0.39,0.4
2021-09-03 18:56:20.7400,-0.14,-0.03,-0.31,0.34
2021-09-03 18:56:20.7630,-0.15,-0.04,-0.38,0.41
2021-09-03 18:56:20.7640,0.0,-0.02,-0.32,0.32
2021-09-03 18:56:20.7690,0.01,-0.07,-0.17,0.18
2021-09-03 18:56:20.7800,-0.11,-0.05,-0.07,0.13
2021-09-03 18:56:20.7900,-0.33,0.08,-0.04,0.34
2021-09-03 18:56:20.8000,-0.4,0.12,-0.06,0.42
2021-09-03 18:56:20.8100,-0.36,0.13,-0.02,0.38
2021-09-03 18:56:20.8200,-0.19,0.14,-0.13,0.26
2021-09-03 18:56:20.8300,0.15,0.15,-0.27,0.34
2021-09-03 18:56:20.8400,0.37,0.06,-0.28,0.46
2021-09-03 18:56:20.8610,0.16,-0.1,-0.25,0.31
2021-09-03 18:56:20.8620,-0.12,-0.1,-0.29,0.32
2021-09-03 18:56:20.8700,-0.15,0.04,-0.27,0.31
2021-09-03 18:56:20.8790,-0.02,0.07,-0.14,0.15
2021-09-03 18:56:20.8900,0.1,0.04,0.05,0.11
2021-09-03 18:56:20.9000,-0.04,0.1,0.18,0.2
2021-09-03 18:56:20.9100,-0.11,0.15,0.08,0.2
2021-09-03 18:56:20.9190,0.01,0.13,0.02,0.13
2021-09-03 18:56:20.9300,0.14,0.02,0.06,0.15
2021-09-03 18:56:20.9400,0.13,-0.06,0.18,0.23
2021-09-03 18:56:20.9610,-0.07,0.05,0.1,0.13
2021-09-03 18:56:20.9630,-0.16,0.08,-0.03,0.18
2021-09-03 18:56:20.9690,-0.12,0.08,-0.14,0.2
2021-09-03 18:56:20.9790,0.0,0.03,-0.28,0.28
2021-09-03 18:56:20.9890,0.11,0.02,-0.38,0.39
2021-09-03 18:56:20.9990,-0.02,0.15,-0.29,0.32
2021-09-03 18:56:21.0100,-0.24,0.12,-0.11,0.28
2021-09-03 18:56:21.0190,-0.43,0.01,-0.07,0.43
2021-09-03 18:56:21.0300,-0.55,0.04,-0.37,0.66
2021-09-03 18:56:21.0390,-0.36,0.11,-0.66,0.75
2021-09-03 18:56:21.0620,-0.17,0.08,-0.54,0.57
2021-09-03 18:56:21.0640,-0.12,-0.04,-0.34,0.36
2021-09-03 18:56:21.0690,-0.16,-0.03,-0.32,0.35
2021-09-03 18:56:21.0790,-0.24,0.02,-0.4,0.46
2021-09-03 18:56:21.0890,-0.24,0.02,-0.42,0.48
2021-09-03 18:56:21.0990,-0.1,-0.04,-0.4,0.41
2021-09-03 18:56:21.1090,0.03,-0.14,-0.34,0.36
2021-09-03 18:56:21.1190,-0.09,-0.12,-0.22,0.26
2021-09-03 18:56:21.1290,-0.29,0.05,-0.21,0.36
2021-09-03 18:56:21.1390,-0.31,0.19,-0.19,0.41
2021-09-03 18:56:21.1620,-0.21,0.17,-0.08,0.28
2021-09-03 18:56:21.1640,-0.04,0.13,0.03,0.13
2021-09-03 18:56:21.1680,0.1,0.11,0.16,0.21
2021-09-03 18:56:21.1790,0.08,0.09,0.23,0.25
2021-09-03 18:56:21.1890,0.07,0.05,0.21,0.22
2021-09-03 18:56:21.1990,0.13,0.03,0.15,0.2
2021-09-03 18:56:21.2090,0.22,0.02,0.03,0.22
2021-09-03 18:56:21.2190,0.32,0.02,-0.07,0.32
2021-09-03 18:56:21.2290,0.21,0.02,-0.15,0.25
2021-09-03 18:56:21.2390,0.05,0.0,-0.18,0.18
2021-09-03 18:56:21.2590,0.11,0.0,-0.07,0.13
2021-09-03 18:56:21.2610,0.15,-0.02,0.18,0.23
2021-09-03 18:56:21.2680,0.0,0.03,0.27,0.27
2021-09-03 18:56:21.2780,0.03,0.1,0.19,0.21
2021-09-03 18:56:21.2880,0.05,0.1,0.19,0.22
2021-09-03 18:56:21.2980,0.09,0.0,0.15,0.17
2021-09-03 18:56:21.3090,0.2,-0.04,0.11,0.23
2021-09-03 18:56:21.3180,0.12,-0.03,0.17,0.21
2021-09-03 18:56:21.3290,-0.12,0.0,0.17,0.2
2021-09-03 18:56:21.3380,-0.07,0.06,0.05,0.1
2021-09-03 18:56:21.3610,0.2,0.08,0.05,0.22
2021-09-03 18:56:21.3630,0.4,-0.09,0.25,0.48
2021-09-03 18:56:21.3680,0.1,-0.12,0.44,0.46
2021-09-03 18:56:21.3780,-0.3,0.04,0.36,0.47
2021-09-03 18:56:21.3880,-0.27,0.2,0.18,0.38
2021-09-03 18:56:21.3980,0.06,0.06,0.04,0.09
2021-09-03 18:56:21.4080,0.54,-0.16,-0.18,0.59
2021-09-03 18:56:21.4180,0.86,-0.2,-0.26,0.92
2021-09-03 18:56:21.4290,0.58,-0.1,0.02,0.58
2021-09-03 18:56:21.4380,0.0,-0.09,0.27,0.28
2021-09-03 18:56:21.4600,-0.17,0.06,0.26,0.31
2021-09-03 18:56:21.4620,0.05,0.06,0.15,0.16
2021-09-03 18:56:21.4680,0.39,-0.07,0.11,0.41
2021-09-03 18:56:21.4780,0.46,-0.11,0.23,0.52
2021-09-03 18:56:21.4880,0.1,-0.08,0.36,0.38
2021-09-03 18:56:21.4980,-0.29,-0.03,0.4,0.49
2021-09-03 18:56:21.5080,-0.31,0.04,0.26,0.4
2021-09-03 18:56:21.5180,-0.36,0.07,-0.05,0.37
2021-09-03 18:56:21.5280,-0.55,-0.04,0.0,0.55
2021-09-03 18:56:21.5380,-0.73,0.07,0.1,0.74
2021-09-03 18:56:21.5600,-0.72,0.17,0.02,0.74
2021-09-03 18:56:21.5620,-0.43,0.21,-0.07,0.48
2021-09-03 18:56:21.5670,-0.15,0.19,-0.15,0.28
2021-09-03 18:56:21.5770,-0.04,0.05,-0.09,0.11
2021-09-03 18:56:21.5870,-0.02,-0.07,0.04,0.08
2021-09-03 18:56:21.5980,-0.2,-0.09,0.03,0.22
2021-09-03 18:56:21.6080,-0.37,0.02,-0.01,0.37
2021-09-03 18:56:21.6180,-0.17,0.13,-0.11,0.24
2021-09-03 18:56:21.6280,0.04,0.06,-0.32,0.32
2021-09-03 18:56:21.6380,0.0,-0.07,-0.4,0.4
2021-09-03 18:56:21.6600,-0.12,-0.02,-0.3,0.32
2021-09-03 18:56:21.6620,-0.21,0.04,-0.14,0.25
2021-09-03 18:56:21.6670,-0.19,0.01,-0.04,0.19
2021-09-03 18:56:21.6780,-0.15,-0.03,-0.01,0.15
2021-09-03 18:56:21.6870,-0.09,0.03,-0.02,0.09
2021-09-03 18:56:21.6970,-0.04,0.1,-0.05,0.11
2021-09-03 18:56:21.7070,-0.09,0.02,-0.09,0.12
2021-09-03 18:56:21.7170,-0.12,-0.03,-0.15,0.19
2021-09-03 18:56:21.7280,-0.14,0.02,-0.1,0.17
2021-09-03 18:56:21.7370,-0.18,0.01,-0.08,0.19
2021-09-03 18:56:21.7600,-0.17,0.02,-0.12,0.2
2021-09-03 18:56:21.7620,-0.13,0.03,-0.2,0.24
2021-09-03 18:56:21.7670,-0.15,0.0,-0.18,0.23
2021-09-03 18:56:21.7790,-0.1,-0.03,-0.12,0.15
2021-09-03 18:56:21.7870,-0.12,-0.05,-0.05,0.13
2021-09-03 18:56:21.7970,-0.2,0.03,0.01,0.2
2021-09-03 18:56:21.8070,-0.18,0.1,-0.07,0.21
2021-09-03 18:56:21.8170,-0.04,0.07,-0.12,0.14
2021-09-03 18:56:21.8270,0.03,-0.04,-0.11,0.12
2021-09-03 18:56:21.8370,0.01,-0.07,-0.08,0.1
2021-09-03 18:56:21.8600,0.0,0.0,-0.03,0.03
2021-09-03 18:56:21.8620,0.0,0.06,-0.01,0.06
2021-09-03 18:56:21.8670,-0.04,0.02,-0.01,0.04
2021-09-03 18:56:21.8780,-0.07,0.03,-0.01,0.07
2021-09-03 18:56:21.8860,-0.05,0.06,0.03,0.08
2021-09-03 18:56:21.8970,-0.06,0.05,0.12,0.14
2021-09-03 18:56:21.9070,-0.02,0.06,0.12,0.13
2021-09-03 18:56:21.9170,0.11,0.04,0.07,0.13
2021-09-03 18:56:21.9270,0.12,-0.1,-0.04,0.16
2021-09-03 18:56:21.9370,0.08,-0.18,0.02,0.19
2021-09-03 18:56:21.9630,0.06,-0.04,-0.03,0.07
2021-09-03 18:56:21.9650,0.05,-0.02,-0.03,0.06
2021-09-03 18:56:21.9660,0.06,-0.09,0.04,0.11
2021-09-03 18:56:21.9780,0.14,-0.19,0.11,0.26
2021-09-03 18:56:21.9860,0.21,-0.19,0.27,0.39
2021-09-03 18:56:21.9960,0.15,-0.01,0.18,0.23
2021-09-03 18:56:22.0070,0.03,0.12,0.05,0.13
2021-09-03 18:56:22.0170,-0.09,0.18,0.18,0.26
2021-09-03 18:56:22.0270,-0.01,0.08,0.28,0.29
2021-09-03 18:56:22.0370,0.19,-0.03,0.26,0.32
2021-09-03 18:56:22.0600,0.27,-0.1,0.08,0.29
2021-09-03 18:56:22.0620,0.19,-0.05,0.03,0.19
2021-09-03 18:56:22.0660,0.09,0.03,0.02,0.09
2021-09-03 18:56:22.0780,0.11,0.05,0.09,0.15
2021-09-03 18:56:22.0860,0.17,0.01,0.13,0.21
2021-09-03 18:56:22.0960,0.12,0.0,0.19,0.22
2021-09-03 18:56:22.1060,0.03,-0.01,0.23,0.23
2021-09-03 18:56:22.1170,-0.03,-0.02,0.16,0.16
2021-09-03 18:56:22.1260,-0.05,0.01,0.14,0.14
2021-09-03 18:56:22.1360,-0.1,0.04,0.16,0.19
2021-09-03 18:56:22.1580,-0.22,0.12,0.17,0.3
2021-09-03 18:56:22.1600,-0.47,0.1,0.2,0.52
2021-09-03 18:56:22.1660,-0.48,0.04,0.22,0.52
2021-09-03 18:56:22.1770,-0.14,0.01,0.23,0.26
2021-09-03 18:56:22.1860,0.3,-0.06,0.13,0.33
2021-09-03 18:56:22.1960,0.57,-0.01,-0.06,0.57
2021-09-03 18:56:22.2060,0.44,0.05,-0.2,0.48
2021-09-03 18:56:22.2160,0.11,0.04,-0.19,0.22
2021-09-03 18:56:22.2260,-0.09,0.11,-0.04,0.14
2021-09-03 18:56:22.2360,-0.14,0.1,0.04,0.17
2021-09-03 18:56:22.2620,-0.14,0.09,0.19,0.25
2021-09-03 18:56:22.2640,-0.02,0.1,0.26,0.27
2021-09-03 18:56:22.2650,-0.02,-0.03,0.2,0.2
2021-09-03 18:56:22.2780,-0.18,-0.01,0.1,0.2
2021-09-03 18:56:22.2850,-0.26,0.08,-0.04,0.27
2021-09-03 18:56:22.2960,-0.2,0.09,-0.08,0.23
2021-09-03 18:56:22.3060,-0.08,0.01,-0.12,0.14
2021-09-03 18:56:22.3160,-0.09,-0.02,-0.2,0.22
2021-09-03 18:56:22.3260,-0.12,0.04,-0.26,0.28
2021-09-03 18:56:22.3360,-0.11,0.06,-0.23,0.26
2021-09-03 18:56:22.3620,-0.08,-0.02,-0.18,0.19
2021-09-03 18:56:22.3640,-0.05,-0.03,-0.11,0.12
2021-09-03 18:56:22.3650,-0.06,0.06,-0.02,0.08
2021-09-03 18:56:22.3790,-0.1,0.08,0.03,0.13
2021-09-03 18:56:22.3850,-0.13,0.03,0.07,0.15
2021-09-03 18:56:22.3950,-0.08,-0.02,0.03,0.08
2021-09-03 18:56:22.4050,-0.01,-0.03,-0.07,0.07
2021-09-03 18:56:22.4150,-0.03,-0.04,-0.09,0.1
2021-09-03 18:56:22.4260,-0.02,-0.03,-0.09,0.09
2021-09-03 18:56:22.4350,0.04,-0.03,-0.07,0.08
2021-09-03 18:56:22.4580,0.06,-0.02,-0.02,0.06
2021-09-03 18:56:22.4590,-0.01,0.01,0.01,0.01
2021-09-03 18:56:22.4650,-0.07,0.07,0.02,0.1
2021-09-03 18:56:22.4780,-0.09,0.06,0.05,0.11
2021-09-03 18:56:22.4850,-0.05,0.03,0.01,0.05
2021-09-03 18:56:22.4950,-0.04,0.04,-0.01,0.05
2021-09-03 18:56:22.5050,-0.06,0.05,-0.02,0.08
2021-09-03 18:56:22.5150,-0.07,0.05,0.0,0.08
2021-09-03 18:56:22.5260,-0.05,0.04,0.03,0.07
2021-09-03 18:56:22.5360,-0.04,0.03,-0.03,0.05
2021-09-03 18:56:22.5590,-0.07,-0.01,-0.03,0.07
2021-09-03 18:56:22.5610,-0.03,-0.03,-0.07,0.08
2021-09-03 18:56:22.5640,0.07,0.03,-0.12,0.14
2021-09-03 18:56:22.5770,0.07,0.12,-0.08,0.16
2021-09-03 18:56:22.5850,-0.05,0.1,-0.05,0.12
2021-09-03 18:56:22.5950,-0.06,0.03,0.03,0.07
2021-09-03 18:56:22.6050,-0.01,0.04,0.09,0.09
2021-09-03 18:56:22.6150,0.03,0.07,0.05,0.09
2021-09-03 18:56:22.6250,0.05,0.08,0.04,0.1
2021-09-03 18:56:22.6350,0.02,0.02,0.07,0.07
2021-09-03 18:56:22.6570,-0.03,-0.02,0.08,0.08
2021-09-03 18:56:22.6590,0.04,0.03,0.05,0.07
2021-09-03 18:56:22.6640,0.08,0.06,0.05,0.11
2021-09-03 18:56:22.6780,0.02,0.01,0.12,0.12
2021-09-03 18:56:22.6840,0.03,-0.06,0.19,0.2
2021-09-03 18:56:22.6950,-0.02,-0.09,0.12,0.15
2021-09-03 18:56:22.7040,-0.06,-0.12,0.08,0.15
2021-09-03 18:56:22.7150,0.02,-0.01,0.07,0.07
2021-09-03 18:56:22.7250,0.08,0.09,0.08,0.14
2021-09-03 18:56:22.7350,-0.03,0.04,-0.07,0.08
2021-09-03 18:56:22.7550,-0.18,0.02,-0.14,0.22
2021-09-03 18:56:22.7560,-0.21,0.02,-0.11,0.23
2021-09-03 18:56:22.7640,-0.14,-0.01,-0.05,0.14
2021-09-03 18:56:22.7740,-0.03,0.01,-0.01,0.03
2021-09-03 18:56:22.7840,-0.03,0.02,0.0,0.03
2021-09-03 18:56:22.7950,-0.14,-0.01,-0.03,0.14
2021-09-03 18:56:22.8040,-0.11,-0.03,-0.05,0.12
2021-09-03 18:56:22.8150,0.01,-0.02,-0.01,0.02
2021-09-03 18:56:22.8240,0.01,-0.02,0.06,0.06
2021-09-03 18:56:22.8340,0.13,-0.02,0.1,0.16
2021-09-03 18:56:22.8570,0.23,-0.07,0.1,0.26
2021-09-03 18:56:22.8590,0.2,-0.09,0.09,0.23
2021-09-03 18:56:22.8640,0.07,-0.08,0.07,0.12
2021-09-03 18:56:22.8770,0.07,-0.01,0.08,0.1
2021-09-03 18:56:22.8840,0.14,0.06,0.12,0.19
2021-09-03 18:56:22.8940,0.16,0.04,0.14,0.21
2021-09-03 18:56:22.9040,0.13,0.04,0.18,0.22
2021-09-03 18:56:22.9140,0.12,0.07,0.29,0.32
2021-09-03 18:56:22.9240,0.15,0.04,0.38,0.41
2021-09-03 18:56:22.9340,0.15,-0.07,0.41,0.44
2021-09-03 18:56:22.9560,0.18,-0.13,0.36,0.42
2021-09-03 18:56:22.9580,0.18,-0.14,0.13,0.26
2021-09-03 18:56:22.9640,0.2,-0.07,0.01,0.21
2021-09-03 18:56:22.9730,0.26,0.03,-0.02,0.26
2021-09-03 18:56:22.9840,0.22,0.0,-0.01,0.22
2021-09-03 18:56:22.9940,0.07,-0.02,0.07,0.1
2021-09-03 18:56:23.0030,0.0,0.01,0.17,0.17
2021-09-03 18:56:23.0140,0.05,-0.02,0.14,0.15
2021-09-03 18:56:23.0240,0.07,-0.03,0.09,0.11
2021-09-03 18:56:23.0340,0.02,-0.03,0.16,0.16
2021-09-03 18:56:23.0580,-0.08,-0.03,0.21,0.22
2021-09-03 18:56:23.0600,-0.1,0.01,0.18,0.2
2021-09-03 18:56:23.0630,-0.01,0.02,0.14,0.14
2021-09-03 18:56:23.0770,0.0,-0.02,0.08,0.08
2021-09-03 18:56:23.0830,-0.09,-0.14,0.13,0.21
2021-09-03 18:56:23.0940,-0.18,-0.18,0.17,0.3
2021-09-03 18:56:23.1030,-0.21,-0.12,0.16,0.28
2021-09-03 18:56:23.1140,-0.08,-0.08,0.09,0.14
2021-09-03 18:56:23.1240,0.07,-0.11,0.0,0.13
2021-09-03 18:56:23.1340,0.13,-0.22,-0.02,0.25
2021-09-03 18:56:23.1560,0.08,-0.27,0.0,0.28
2021-09-03 18:56:23.1580,-0.03,-0.12,0.07,0.14
2021-09-03 18:56:23.1630,-0.11,-0.09,0.07,0.15
2021-09-03 18:56:23.1730,-0.06,-0.14,0.04,0.15
2021-09-03 18:56:23.1830,0.13,-0.11,-0.03,0.17
2021-09-03 18:56:23.1930,0.28,-0.04,-0.08,0.29
2021-09-03 18:56:23.2030,0.22,-0.04,-0.08,0.23
2021-09-03 18:56:23.2130,0.08,-0.11,-0.06,0.14
2021-09-03 18:56:23.2230,0.1,-0.13,-0.09,0.18
2021-09-03 18:56:23.2330,0.22,-0.02,-0.17,0.27
2021-09-03 18:56:23.2540,0.16,0.04,-0.23,0.28
2021-09-03 18:56:23.2550,-0.1,-0.13,-0.33,0.36
2021-09-03 18:56:23.2630,-0.14,-0.31,-0.37,0.5
2021-09-03 18:56:23.2730,0.06,-0.35,-0.24,0.42
2021-09-03 18:56:23.2830,0.22,-0.22,-0.09,0.32
2021-09-03 18:56:23.2930,0.13,-0.11,-0.14,0.22
2021-09-03 18:56:23.3030,-0.03,0.04,-0.11,0.12
2021-09-03 18:56:23.3130,-0.08,0.24,-0.03,0.25
2021-09-03 18:56:23.3230,-0.04,0.3,0.03,0.3
2021-09-03 18:56:23.3330,-0.12,0.25,0.06,0.28
2021-09-03 18:56:23.3550,-0.2,0.24,0.1,0.32
2021-09-03 18:56:23.3570,-0.22,0.21,0.15,0.33
2021-09-03 18:56:23.3620,-0.17,0.2,0.16,0.3
2021-09-03 18:56:23.3730,-0.06,0.27,0.16,0.31
2021-09-03 18:56:23.3830,-0.06,0.16,0.24,0.29
2021-09-03 18:56:23.3930,0.02,-0.03,0.24,0.24
2021-09-03 18:56:23.4030,0.16,-0.11,0.29,0.34
2021-09-03 18:56:23.4130,0.32,-0.18,0.33,0.49
2021-09-03 18:56:23.4220,0.56,-0.26,0.33,0.7
2021-09-03 18:56:23.4330,0.78,-0.38,0.4,0.95
2021-09-03 18:56:23.4550,1.01,-0.4,0.54,1.21
2021-09-03 18:56:23.4580,1.14,-0.51,0.66,1.41
2021-09-03 18:56:23.4620,0.97,-0.7,0.55,1.31
2021-09-03 18:56:23.4720,0.76,-0.75,0.47,1.16
2021-09-03 18:56:23.4820,0.79,-0.76,0.46,1.18
2021-09-03 18:56:23.4920,0.96,-0.69,0.5,1.28
2021-09-03 18:56:23.5020,0.84,-0.71,0.46,1.19
2021-09-03 18:56:23.5130,0.54,-0.74,0.43,1.01
2021-09-03 18:56:23.5220,0.45,-0.76,0.4,0.96
2021-09-03 18:56:23.5320,0.59,-0.72,0.37,1.0
2021-09-03 18:56:23.5570,0.73,-0.58,0.35,0.99
2021-09-03 18:56:23.5590,0.75,-0.44,0.27,0.91
2021-09-03 18:56:23.5620,0.61,-0.3,0.19,0.7
2021-09-03 18:56:23.5770,0.43,-0.25,0.17,0.52
2021-09-03 18:56:23.5820,0.32,-0.25,0.21,0.45
2021-09-03 18:56:23.5940,0.27,-0.2,0.24,0.41
2021-09-03 18:56:23.6020,0.17,-0.18,0.32,0.4
2021-09-03 18:56:23.6120,0.14,-0.15,0.39,0.44
2021-09-03 18:56:23.6220,0.14,-0.19,0.44,0.49
2021-09-03 18:56:23.6320,0.19,-0.26,0.48,0.57
2021-09-03 18:56:23.6550,0.25,-0.32,0.49,0.63
2021-09-03 18:56:23.6570,0.24,-0.46,0.49,0.71
2021-09-03 18:56:23.6620,0.29,-0.58,0.56,0.85
2021-09-03 18:56:23.6720,0.36,-0.68,0.6,0.97
2021-09-03 18:56:23.6820,0.32,-0.89,0.61,1.12
2021-09-03 18:56:23.6920,0.21,-1.14,0.62,1.31
2021-09-03 18:56:23.7020,0.19,-1.27,0.6,1.41
2021-09-03 18:56:23.7120,0.21,-1.4,0.68,1.57
2021-09-03 18:56:23.7210,0.21,-1.65,0.76,1.82
2021-09-03 18:56:23.7320,0.29,-1.8,0.92,2.04
2021-09-03 18:56:23.7530,0.38,-1.99,1.26,2.38
2021-09-03 18:56:23.7550,0.37,-2.25,1.61,2.79
2021-09-03 18:56:23.7620,0.26,-2.65,1.84,3.23
2021-09-03 18:56:23.7710,0.18,-3.07,2.09,3.71
2021-09-03 18:56:23.7820,0.12,-3.26,2.31,3.99
2021-09-03 18:56:23.7920,0.11,-3.42,2.42,4.19
2021-09-03 18:56:23.8010,-0.07,-3.68,2.29,4.33
2021-09-03 18:56:23.8120,-0.12,-4.15,2.08,4.64
2021-09-03 18:56:23.8210,0.03,-4.46,2.02,4.89
2021-09-03 18:56:23.8320,0.2,-3.99,1.82,4.39
2021-09-03 18:56:23.8540,0.64,-3.52,1.84,4.02
2021-09-03 18:56:23.8560,1.29,-3.66,2.18,4.45
2021-09-03 18:56:23.8610,1.89,-3.68,2.55,4.85
2021-09-03 18:56:23.8710,1.84,-3.55,3.09,5.05
2021-09-03 18:56:23.8810,1.62,-3.87,3.54,5.48
2021-09-03 18:56:23.8910,1.59,-3.52,3.33,5.09
2021-09-03 18:56:23.9010,1.89,-3.08,3.19,4.82
2021-09-03 18:56:23.9120,2.29,-3.02,3.11,4.9
2021-09-03 18:56:23.9220,2.62,-3.03,3.05,5.03
2021-09-03 18:56:23.9320,2.93,-2.69,3.07,5.02
2021-09-03 18:56:23.9540,3.15,-1.99,3.12,4.85
2021-09-03 18:56:23.9560,3.17,-1.41,3.18,4.7
2021-09-03 18:56:23.9610,3.1,-1.17,3.17,4.58
2021-09-03 18:56:23.9710,3.1,-0.98,2.97,4.4
2021-09-03 18:56:23.9810,3.31,-0.6,2.56,4.22
2021-09-03 18:56:23.9910,3.68,-0.01,2.16,4.26
2021-09-03 18:56:24.0010,4.0,0.57,1.93,4.47
2021-09-03 18:56:24.0110,3.96,1.01,1.72,4.43
2021-09-03 18:56:24.0210,3.48,1.26,1.38,3.94
2021-09-03 18:56:24.0320,2.8,1.49,0.96,3.31
2021-09-03 18:56:24.0550,2.18,1.85,0.55,2.91
2021-09-03 18:56:24.0570,1.53,2.2,0.21,2.68
2021-09-03 18:56:24.0600,0.89,2.33,-0.19,2.5
2021-09-03 18:56:24.0710,0.36,2.32,-0.65,2.43
2021-09-03 18:56:24.0810,-0.02,2.36,-1.21,2.65
2021-09-03 18:56:24.0910,-0.46,2.16,-1.85,2.88
2021-09-03 18:56:24.1010,-1.12,1.78,-2.41,3.19
2021-09-03 18:56:24.1110,-1.97,1.49,-2.82,3.74
2021-09-03 18:56:24.1210,-2.98,1.27,-3.07,4.46
2021-09-03 18:56:24.1310,-4.37,1.42,-3.22,5.61
2021-09-03 18:56:24.1530,-5.68,1.8,-3.66,6.99
2021-09-03 18:56:24.1550,-6.48,1.99,-4.12,7.93
2021-09-03 18:56:24.1610,-6.79,1.95,-4.48,8.36
2021-09-03 18:56:24.1700,-7.03,2.43,-4.79,8.84
2021-09-03 18:56:24.1810,-7.11,3.35,-4.96,9.29
2021-09-03 18:56:24.1900,-7.37,4.09,-4.67,9.63
2021-09-03 18:56:24.2010,-10.17,4.17,-3.52,11.54
2021-09-03 18:56:24.2100,-13.01,3.76,-4.84,14.38
2021-09-03 18:56:24.2200,-14.39,4.01,-8.19,17.03
2021-09-03 18:56:24.2310,-7.21,-0.49,-9.94,12.28
2021-09-03 18:56:24.2520,5.15,-3.57,-3.54,7.19
2021-09-03 18:56:24.2540,12.22,3.98,3.47,13.31
2021-09-03 18:56:24.2600,13.02,3.97,1.61,13.7
2021-09-03 18:56:24.2700,1.23,-6.02,-5.33,8.13
2021-09-03 18:56:24.2800,-8.0,-12.51,-8.48,17.1
2021-09-03 18:56:24.2900,-2.21,-5.9,-4.18,7.56
2021-09-03 18:56:24.3000,7.55,1.87,2.03,8.03
2021-09-03 18:56:24.3100,8.76,0.35,1.55,8.9
2021-09-03 18:56:24.3200,2.58,-1.73,0.31,3.12
2021-09-03 18:56:24.3300,-2.12,1.02,0.12,2.35
2021-09-03 18:56:24.3520,-2.58,2.58,0.11,3.65
2021-09-03 18:56:24.3530,-1.83,2.36,-0.97,3.13
2021-09-03 18:56:24.3590,-1.41,2.02,-1.85,3.08
2021-09-03 18:56:24.3700,-0.75,1.74,-1.53,2.43
2021-09-03 18:56:24.3800,-0.55,0.97,-0.79,1.36
2021-09-03 18:56:24.3900,-0.56,-0.69,-0.17,0.9
2021-09-03 18:56:24.4000,0.27,-1.7,0.81,1.9
2021-09-03 18:56:24.4100,0.79,-0.3,1.26,1.51
2021-09-03 18:56:24.4200,-0.19,0.81,0.55,0.99
2021-09-03 18:56:24.4300,-1.09,1.3,-0.04,1.69
2021-09-03 18:56:24.4510,-1.78,2.33,-0.51,2.97
2021-09-03 18:56:24.4530,-2.58,3.06,-0.83,4.08
2021-09-03 18:56:24.4590,-3.24,3.16,-0.94,4.62
2021-09-03 18:56:24.4700,-3.49,3.6,-0.92,5.09
2021-09-03 18:56:24.4800,-3.68,3.85,-0.94,5.4
2021-09-03 18:56:24.4890,-4.4,3.83,-0.9,5.9
2021-09-03 18:56:24.5000,-5.72,3.46,-1.36,6.82
2021-09-03 18:56:24.5100,-6.83,2.43,-1.92,7.49
2021-09-03 18:56:24.5190,-8.05,1.1,-3.09,8.69
2021-09-03 18:56:24.5300,-8.48,-2.38,-4.42,9.85
2021-09-03 18:56:24.5520,-7.63,-6.65,-5.42,11.48
2021-09-03 18:56:24.5540,-6.45,-10.61,-6.16,13.86
2021-09-03 18:56:24.5590,-3.59,-15.49,-6.46,17.16
2021-09-03 18:56:24.5690,1.21,-19.04,-6.41,20.12
2021-09-03 18:56:24.5790,7.46,-20.09,-5.32,22.08
2021-09-03 18:56:24.5890,13.67,-18.78,-3.19,23.44
2021-09-03 18:56:24.5990,17.79,-15.53,-0.33,23.61
2021-09-03 18:56:24.6090,18.06,-10.68,2.31,21.1
2021-09-03 18:56:24.6190,13.75,-5.87,4.48,15.6
2021-09-03 18:56:24.6300,7.75,-3.35,7.06,11.0
2021-09-03 18:56:24.6490,2.89,-2.87,9.9,10.7
2021-09-03 18:56:24.6510,-0.04,-2.68,10.79,11.11
2021-09-03 18:56:24.6590,-1.68,-1.52,10.86,11.09
2021-09-03 18:56:24.6690,-1.9,0.19,11.17,11.33
2021-09-03 18:56:24.6790,1.63,2.45,12.89,13.22
2021-09-03 18:56:24.6890,5.51,4.89,12.31,14.34
2021-09-03 18:56:24.6990,9.99,3.6,10.55,14.96
2021-09-03 18:56:24.7090,12.3,-1.4,7.25,14.34
2021-09-03 18:56:24.7190,13.82,-7.47,5.38,16.6
2021-09-03 18:56:24.7290,15.23,-12.04,4.32,19.88
2021-09-03 18:56:24.7510,14.78,-13.42,4.95,20.56
2021-09-03 18:56:24.7520,13.77,-11.91,5.72,19.08
2021-09-03 18:56:24.7580,12.51,-9.84,6.33,17.12
2021-09-03 18:56:24.7690,12.35,-9.34,5.98,16.59
2021-09-03 18:56:24.7790,11.71,-10.5,4.9,16.47
2021-09-03 18:56:24.7890,9.99,-12.99,4.23,16.92
2021-09-03 18:56:24.7990,7.2,-15.76,3.72,17.72
2021-09-03 18:56:24.8090,4.0,-16.89,2.24,17.5
2021-09-03 18:56:24.8190,1.69,-16.23,-0.15,16.31
2021-09-03 18:56:24.8290,-0.5,-14.88,-2.76,15.14
2021-09-03 18:56:24.8510,-2.86,-12.88,-3.81,13.73
2021-09-03 18:56:24.8520,-4.49,-10.09,-4.25,11.83
2021-09-03 18:56:24.8580,-4.95,-8.22,-3.73,10.29
2021-09-03 18:56:24.8690,-4.99,-6.54,-3.37,8.88
2021-09-03 18:56:24.8780,-3.88,-4.49,-3.49,6.88
2021-09-03 18:56:24.8880,-1.53,-1.87,-2.45,3.44
2021-09-03 18:56:24.8990,0.54,1.0,-0.82,1.4
2021-09-03 18:56:24.9090,1.41,3.47,0.44,3.77
2021-09-03 18:56:24.9180,1.04,5.02,1.25,5.27
2021-09-03 18:56:24.9290,0.26,5.88,1.71,6.12
2021-09-03 18:56:24.9500,-0.18,6.51,2.22,6.88
2021-09-03 18:56:24.9520,-0.13,7.31,2.54,7.73
2021-09-03 18:56:24.9580,0.14,7.94,2.28,8.26
2021-09-03 18:56:24.9680,0.45,8.0,1.35,8.12
2021-09-03 18:56:24.9780,0.6,7.9,0.08,7.92
2021-09-03 18:56:24.9880,0.46,7.86,-1.08,7.94
2021-09-03 18:56:24.9980,-0.83,7.95,-2.86,8.48
2021-09-03 18:56:25.0080,-2.9,7.91,-5.22,9.91
2021-09-03 18:56:25.0180,-5.24,7.72,-7.2,11.78
2021-09-03 18:56:25.0280,-7.88,6.9,-8.39,13.42
2021-09-03 18:56:25.0510,-10.44,5.82,-9.61,15.33
2021-09-03 18:56:25.0530,-13.68,4.26,-11.25,18.21
2021-09-03 18:56:25.0580,-17.09,0.79,-12.68,21.29
2021-09-03 18:56:25.0680,-18.22,-1.5,-13.64,22.8
2021-09-03 18:56:25.0780,-18.17,0.73,-11.88,21.72
2021-09-03 18:56:25.0880,-17.87,5.95,-7.41,20.23
2021-09-03 18:56:25.0980,-14.26,10.8,-7.38,19.35
2021-09-03 18:56:25.1080,-10.84,14.96,-11.01,21.5
2021-09-03 18:56:25.1180,-12.57,17.72,-12.51,25.06
2021-09-03 18:56:25.1280,-34.16,16.51,-7.91,38.75
2021-09-03 18:56:25.1500,-62.56,14.04,-23.14,68.16
2021-09-03 18:56:25.1520,-19.57,-18.51,-23.61,35.81
2021-09-03 18:56:25.1570,18.89,-35.19,23.66,46.42
2021-09-03 18:56:25.1680,20.18,11.59,10.04,25.34
2021-09-03 18:56:25.1780,9.25,-9.33,-24.75,28.02
2021-09-03 18:56:25.1880,19.8,-19.29,-20.69,34.52
2021-09-03 18:56:25.1980,1.04,12.38,0.78,12.44
2021-09-03 18:56:25.2080,-18.34,10.58,-9.01,23.01
2021-09-03 18:56:25.2180,-24.58,3.85,-12.78,27.97
2021-09-03 18:56:25.2280,-7.55,-4.65,-5.98,10.69
2021-09-03 18:56:25.2490,4.68,-6.24,-2.85,8.3
2021-09-03 18:56:25.2510,1.62,-7.16,-4.63,8.67
2021-09-03 18:56:25.2570,-7.12,-7.45,-3.03,10.74
2021-09-03 18:56:25.2670,-13.04,-8.08,-2.93,15.61
2021-09-03 18:56:25.2770,-10.37,-10.33,-5.79,15.74
2021-09-03 18:56:25.2870,-3.49,-11.01,-6.62,13.31
2021-09-03 18:56:25.2970,0.49,-12.16,-6.69,13.88
2021-09-03 18:56:25.3070,2.7,-13.95,-6.8,15.75
2021-09-03 18:56:25.3170,4.74,-14.37,-6.31,16.39
2021-09-03 18:56:25.3270,7.78,-13.49,-4.76,16.28
2021-09-03 18:56:25.3480,9.71,-10.84,-2.26,14.72
2021-09-03 18:56:25.3500,9.8,-9.06,0.36,13.35
2021-09-03 18:56:25.3570,8.87,-7.1,3.11,11.77
2021-09-03 18:56:25.3670,6.21,-4.83,5.77,9.75
2021-09-03 18:56:25.3770,4.33,-4.61,10.03,11.85
2021-09-03 18:56:25.3870,1.07,-3.9,12.79,13.41
2021-09-03 18:56:25.3970,-0.62,-1.56,11.96,12.07
2021-09-03 18:56:25.4070,1.59,-1.0,10.59,10.75
2021-09-03 18:56:25.4170,5.42,0.07,8.19,9.82
2021-09-03 18:56:25.4280,11.9,0.37,7.5,14.07
2021-09-03 18:56:25.4500,17.99,-0.93,6.85,19.27
2021-09-03 18:56:25.4520,22.5,-5.26,6.3,23.95
2021-09-03 18:56:25.4560,24.59,-9.47,5.74,26.96
2021-09-03 18:56:25.4670,21.13,-9.27,7.19,24.16
2021-09-03 18:56:25.4770,16.85,-7.63,8.22,20.24
2021-09-03 18:56:25.4860,13.69,-6.35,7.71,16.94
2021-09-03 18:56:25.4970,12.04,-6.82,7.2,15.59
2021-09-03 18:56:25.5070,11.25,-8.13,6.65,15.39
2021-09-03 18:56:25.5170,10.64,-9.35,6.07,15.41
2021-09-03 18:56:25.5270,9.47,-10.64,5.5,15.26
2021-09-03 18:56:25.5480,7.23,-12.09,4.68,14.84
2021-09-03 18:56:25.5500,4.23,-13.06,3.49,14.16
2021-09-03 18:56:25.5560,0.69,-13.94,2.17,14.12
2021-09-03 18:56:25.5670,-4.37,-14.78,0.05,15.41
2021-09-03 18:56:25.5760,-9.61,-14.13,-3.59,17.46
2021-09-03 18:56:25.5860,-12.27,-11.89,-6.87,18.41
2021-09-03 18:56:25.5970,-10.15,-9.48,-6.18,15.2
2021-09-03 18:56:25.6070,-7.22,-6.9,-4.14,10.81
2021-09-03 18:56:25.6170,-5.24,-4.22,-3.96,7.8
2021-09-03 18:56:25.6270,-2.6,-1.43,-4.33,5.24
2021-09-03 18:56:25.6490,-0.43,1.86,-2.98,3.53
2021-09-03 18:56:25.6510,0.1,4.76,-0.69,4.81
2021-09-03 18:56:25.6560,-0.67,6.89,0.74,6.96
2021-09-03 18:56:25.6660,-1.45,8.26,1.24,8.47
2021-09-03 18:56:25.6760,-1.4,8.74,1.34,8.95
2021-09-03 18:56:25.6860,-0.96,8.63,1.4,8.79
2021-09-03 18:56:25.6960,-1.15,8.15,1.09,8.3
2021-09-03 18:56:25.7060,-2.12,7.8,0.25,8.08
2021-09-03 18:56:25.7160,-3.01,7.63,-1.54,8.34
2021-09-03 18:56:25.7260,-3.32,7.34,-3.92,8.95
2021-09-03 18:56:25.7480,-3.35,6.94,-6.0,9.76
2021-09-03 18:56:25.7500,-4.22,6.52,-7.35,10.69
2021-09-03 18:56:25.7560,-5.68,6.13,-8.15,11.67
2021-09-03 18:56:25.7660,-7.52,4.93,-8.46,12.34
2021-09-03 18:56:25.7760,-9.79,3.99,-8.68,13.67
2021-09-03 18:56:25.7860,-12.48,3.68,-9.2,15.93
2021-09-03 18:56:25.7960,-14.09,3.58,-10.1,17.7
2021-09-03 18:56:25.8060,-12.81,2.34,-10.18,16.52
2021-09-03 18:56:25.8160,-10.57,-0.13,-10.17,14.66
2021-09-03 18:56:25.8260,-10.21,-1.05,-9.43,13.93
2021-09-03 18:56:25.8470,-11.3,2.28,-7.8,13.91
2021-09-03 18:56:25.8490,-10.42,9.83,-7.29,16.07
2021-09-03 18:56:25.8560,-9.76,16.27,-9.5,21.21
2021-09-03 18:56:25.8660,-11.01,17.46,-12.22,23.98
2021-09-03 18:56:25.8760,-12.91,14.43,-10.39,21.97
2021-09-03 18:56:25.8850,-14.24,13.0,-7.84,20.81
2021-09-03 18:56:25.8960,-12.65,13.55,-6.86,19.76
2021-09-03 18:56:25.9060,-20.05,14.68,-5.67,25.48
2021-09-03 18:56:25.9170,-57.94,16.14,-8.6,60.75
2021-09-03 18:56:25.9260,-48.16,-20.98,-28.07,59.56
2021-09-03 18:56:25.9460,2.96,-57.53,15.66,59.69
2021-09-03 18:56:25.9470,22.01,5.12,35.02,41.67
2021-09-03 18:56:25.9550,22.31,-13.34,-19.35,32.4
2021-09-03 18:56:25.9650,22.29,-19.47,-26.12,39.47
2021-09-03 18:56:25.9760,0.88,10.31,-16.47,19.45
2021-09-03 18:56:25.9850,-23.13,6.53,-13.91,27.76
2021-09-03 18:56:25.9960,-16.71,-5.55,-17.21,24.62
2021-09-03 18:56:26.0060,8.13,-11.32,-7.6,15.87
2021-09-03 18:56:26.0160,8.17,-2.0,-6.79,10.8
2021-09-03 18:56:26.0260,-9.24,-1.14,-4.32,10.26
2021-09-03 18:56:26.0470,-23.2,-4.92,-0.64,23.72
2021-09-03 18:56:26.0490,-19.12,-9.55,-4.08,21.75
2021-09-03 18:56:26.0550,-6.98,-9.79,-7.58,14.21
2021-09-03 18:56:26.0650,-0.11,-11.21,-8.73,14.2
2021-09-03 18:56:26.0750,2.75,-17.33,-8.88,19.66
2021-09-03 18:56:26.0850,6.1,-19.37,-6.95,21.46
2021-09-03 18:56:26.0950,10.45,-16.82,-5.27,20.49
2021-09-03 18:56:26.1050,15.54,-14.0,-2.47,21.06
2021-09-03 18:56:26.1150,17.74,-10.08,0.38,20.4
2021-09-03 18:56:26.1250,16.81,-6.21,2.76,18.13
2021-09-03 18:56:26.1450,11.72,-3.17,5.3,13.24
2021-09-03 18:56:26.1460,8.09,-3.33,9.12,12.63
2021-09-03 18:56:26.1540,4.08,-4.2,11.12,12.56
2021-09-03 18:56:26.1650,0.36,-3.81,11.52,12.13
2021-09-03 18:56:26.1750,0.56,-1.75,11.16,11.31
2021-09-03 18:56:26.1850,4.15,2.84,10.72,11.84
2021-09-03 18:56:26.1950,9.61,5.83,9.94,15.0
2021-09-03 18:56:26.2050,14.42,4.27,9.07,17.56
2021-09-03 18:56:26.2150,16.59,-1.08,6.82,17.96
2021-09-03 18:56:26.2250,19.18,-5.85,5.95,20.91
2021-09-03 18:56:26.2470,19.44,-6.74,5.97,21.42
2021-09-03 18:56:26.2480,16.86,-5.31,6.93,18.98
2021-09-03 18:56:26.2540,15.03,-4.35,7.38,17.29
2021-09-03 18:56:26.2640,13.89,-4.35,6.97,16.13
2021-09-03 18:56:26.2740,13.0,-5.08,6.88,15.56
2021-09-03 18:56:26.2850,11.84,-5.76,7.18,14.99
2021-09-03 18:56:26.2950,10.37,-6.51,7.17,14.18
2021-09-03 18:56:26.3040,8.05,-8.02,6.85,13.26
2021-09-03 18:56:26.3150,5.22,-11.19,6.21,13.82
2021-09-03 18:56:26.3240,1.63,-15.4,4.57,16.14
2021-09-03 18:56:26.3470,-2.75,-17.55,2.0,17.87
2021-09-03 18:56:26.3480,-8.71,-17.82,-1.65,19.9
2021-09-03 18:56:26.3540,-15.76,-17.47,-4.36,23.92
2021-09-03 18:56:26.3640,-15.15,-13.35,-4.83,20.76
2021-09-03 18:56:26.3740,-9.31,-10.06,-2.06,13.86
2021-09-03 18:56:26.3840,-6.55,-8.28,-0.59,10.57
2021-09-03 18:56:26.3940,-5.23,-5.36,-1.92,7.73
2021-09-03 18:56:26.4040,-3.4,-2.67,-3.04,5.28
2021-09-03 18:56:26.4150,-1.47,0.17,-3.1,3.43
2021-09-03 18:56:26.4240,-0.19,3.61,-2.24,4.25
2021-09-03 18:56:26.4470,-0.35,6.18,-1.14,6.29
2021-09-03 18:56:26.4490,-1.34,7.2,-0.53,7.34
2021-09-03 18:56:26.4540,-2.59,7.03,-0.43,7.5
2021-09-03 18:56:26.4640,-3.94,6.51,-0.31,7.61
2021-09-03 18:56:26.4740,-5.42,6.07,-0.62,8.16
2021-09-03 18:56:26.4840,-6.57,5.79,-2.32,9.05
2021-09-03 18:56:26.4940,-6.63,5.27,-4.77,9.72
2021-09-03 18:56:26.5040,-5.59,5.26,-7.68,10.85
2021-09-03 18:56:26.5140,-4.87,6.22,-9.97,12.72
2021-09-03 18:56:26.5240,-5.22,7.36,-11.02,14.24
2021-09-03 18:56:26.5450,-6.13,8.16,-11.36,15.27
2021-09-03 18:56:26.5470,-6.67,8.39,-10.6,15.07
2021-09-03 18:56:26.5530,-6.46,8.27,-9.16,13.92
2021-09-03 18:56:26.5640,-6.12,8.58,-8.32,13.42
2021-09-03 18:56:26.5740,-5.91,7.61,-8.77,13.02
2021-09-03 18:56:26.5840,-6.1,4.01,-10.52,12.8
2021-09-03 18:56:26.5940,-8.32,0.24,-12.06,14.65
2021-09-03 18:56:26.6030,-12.38,0.07,-11.72,17.04
2021-09-03 18:56:26.6140,-15.94,4.71,-10.41,19.61
2021-09-03 18:56:26.6240,-16.06,11.56,-9.89,22.12
2021-09-03 18:56:26.6460,-12.23,15.4,-10.47,22.27
2021-09-03 18:56:26.6480,-9.75,15.47,-11.67,21.69
2021-09-03 18:56:26.6530,-9.19,14.13,-11.66,20.49
2021-09-03 18:56:26.6630,-9.19,12.85,-10.04,18.71
2021-09-03 18:56:26.6730,-9.34,12.91,-8.16,17.9
2021-09-03 18:56:26.6840,-8.73,12.47,-7.08,16.78
2021-09-03 18:56:26.6940,-21.27,14.43,-5.43,26.27
2021-09-03 18:56:26.7040,-64.39,19.74,-16.28,69.28
2021-09-03 18:56:26.7140,-46.73,-32.92,-21.3,61.0
2021-09-03 18:56:26.7240,3.32,-54.21,33.0,63.55
2021-09-03 18:56:26.7450,17.85,15.42,20.17,31.03
2021-09-03 18:56:26.7470,25.73,-24.1,-16.64,38.98
2021-09-03 18:56:26.7530,24.86,-12.88,-22.02,35.62
2021-09-03 18:56:26.7630,-4.5,7.85,-19.78,21.75
2021-09-03 18:56:26.7730,-20.71,-3.82,-20.86,29.64
2021-09-03 18:56:26.7830,-6.32,-10.2,-12.72,17.48
2021-09-03 18:56:26.7930,12.45,-6.78,-5.13,15.07
2021-09-03 18:56:26.8030,3.74,-1.51,-4.24,5.85
2021-09-03 18:56:26.8130,-18.0,-1.41,-2.8,18.27
2021-09-03 18:56:26.8230,-26.24,-8.02,-0.44,27.44
2021-09-03 18:56:26.8440,-15.31,-12.37,-5.74,20.5
2021-09-03 18:56:26.8450,-1.49,-10.56,-9.22,14.09
2021-09-03 18:56:26.8530,4.97,-13.85,-7.96,16.72
2021-09-03 18:56:26.8630,7.21,-20.15,-6.54,22.37
2021-09-03 18:56:26.8730,10.03,-18.9,-4.54,21.87
2021-09-03 18:56:26.8830,14.09,-14.87,-1.9,20.57
2021-09-03 18:56:26.8930,16.23,-10.11,0.37,19.12
2021-09-03 18:56:26.9020,15.09,-5.69,2.66,16.34
2021-09-03 18:56:26.9130,10.58,-2.79,4.92,11.99
2021-09-03 18:56:26.9230,5.36,-2.55,8.38,10.26
2021-09-03 18:56:26.9440,3.23,-5.26,11.24,12.82
2021-09-03 18:56:26.9460,-0.1,-5.68,10.42,11.86
2021-09-03 18:56:26.9520,0.48,-4.97,9.51,10.74
2021-09-03 18:56:26.9620,4.28,-1.29,9.0,10.04
2021-09-03 18:56:26.9720,9.36,4.46,9.91,14.34
2021-09-03 18:56:26.9830,14.66,8.15,10.38,19.72
2021-09-03 18:56:26.9930,16.93,5.73,8.33,19.71
2021-09-03 18:56:27.0020,16.22,-0.97,6.36,17.44
2021-09-03 18:56:27.0130,16.79,-4.57,6.02,18.41
2021-09-03 18:56:27.0220,16.6,-5.13,6.23,18.45
2021-09-03 18:56:27.0450,16.19,-5.15,6.79,18.29
2021-09-03 18:56:27.0470,15.91,-4.81,7.02,18.04
2021-09-03 18:56:27.0520,15.36,-4.02,6.95,17.33
2021-09-03 18:56:27.0620,14.12,-3.79,7.14,16.27
2021-09-03 18:56:27.0720,11.93,-4.08,7.39,14.61
2021-09-03 18:56:27.0820,9.35,-4.64,7.59,12.9
2021-09-03 18:56:27.0930,7.07,-5.7,7.69,11.9
2021-09-03 18:56:27.1020,4.85,-7.54,7.61,11.75
2021-09-03 18:56:27.1130,2.14,-10.94,7.08,13.2
2021-09-03 18:56:27.1220,-1.78,-15.03,4.8,15.87
2021-09-03 18:56:27.1460,-6.69,-16.97,0.55,18.24
2021-09-03 18:56:27.1480,-15.27,-17.75,-4.56,23.85
2021-09-03 18:56:27.1520,-20.26,-15.06,-8.2,26.54
2021-09-03 18:56:27.1620,-15.47,-9.75,-6.92,19.55
2021-09-03 18:56:27.1720,-9.63,-6.88,-3.36,12.3
2021-09-03 18:56:27.1820,-7.44,-4.7,-2.77,9.22
2021-09-03 18:56:27.1920,-5.49,-2.13,-4.37,7.33
2021-09-03 18:56:27.2020,-2.53,0.51,-4.87,5.51
2021-09-03 18:56:27.2120,-0.47,3.25,-3.28,4.64
2021-09-03 18:56:27.2220,0.49,5.35,-0.91,5.44
2021-09-03 18:56:27.2450,0.6,6.69,0.69,6.75
2021-09-03 18:56:27.2460,0.07,7.07,0.56,7.09
2021-09-03 18:56:27.2510,-0.43,7.26,-0.2,7.27
2021-09-03 18:56:27.2620,-0.69,6.76,-1.07,6.87
2021-09-03 18:56:27.2710,-1.27,6.0,-2.56,6.64
2021-09-03 18:56:27.2820,-2.49,5.82,-3.4,7.18
2021-09-03 18:56:27.2920,-4.16,6.46,-4.45,8.87
2021-09-03 18:56:27.3020,-6.78,6.87,-5.54,11.12
2021-09-03 18:56:27.3120,-9.94,5.96,-6.6,13.33
2021-09-03 18:56:27.3220,-12.82,3.76,-7.58,15.36
2021-09-03 18:56:27.3480,-13.02,2.18,-9.73,16.39
2021-09-03 18:56:27.3500,-11.08,2.97,-12.68,17.09
2021-09-03 18:56:27.3510,-8.46,4.19,-14.38,17.2
2021-09-03 18:56:27.3620,-7.13,4.22,-13.89,16.17
2021-09-03 18:56:27.3710,-7.45,3.28,-10.83,13.54
2021-09-03 18:56:27.3810,-10.24,3.48,-7.6,13.21
2021-09-03 18:56:27.3920,-14.91,5.27,-6.5,17.09
2021-09-03 18:56:27.4010,-17.92,8.84,-8.23,21.61
2021-09-03 18:56:27.4110,-17.15,12.83,-9.93,23.6
2021-09-03 18:56:27.4210,-13.01,14.71,-9.72,21.91
2021-09-03 18:56:27.4420,-8.52,14.92,-9.36,19.56
2021-09-03 18:56:27.4430,-5.82,14.09,-9.25,17.83
2021-09-03 18:56:27.4510,-4.57,13.02,-9.37,16.67
2021-09-03 18:56:27.4620,-6.31,12.34,-8.08,16.04
2021-09-03 18:56:27.4710,-33.92,16.64,-4.38,38.03
2021-09-03 18:56:27.4810,-64.92,14.58,-21.92,70.05
2021-09-03 18:56:27.4910,-29.07,-46.12,-14.62,56.44
2021-09-03 18:56:27.5010,10.72,-38.82,45.31,60.62
2021-09-03 18:56:27.5110,12.24,15.57,13.14,23.76
2021-09-03 18:56:27.5210,21.56,-23.46,-27.24,41.91
2021-09-03 18:56:27.5430,17.82,-2.19,-21.52,28.02
2021-09-03 18:56:27.5450,-5.95,13.95,-11.3,18.91
2021-09-03 18:56:27.5510,-23.92,2.29,-16.62,29.21
2021-09-03 18:56:27.5610,-14.49,-12.79,-13.77,23.73
2021-09-03 18:56:27.5710,7.67,-12.46,-8.48,16.91
2021-09-03 18:56:27.5810,9.11,-4.59,-8.98,13.59
2021-09-03 18:56:27.5910,-5.36,-4.09,-7.73,10.25
2021-09-03 18:56:27.6010,-18.7,-8.22,-3.89,20.79
2021-09-03 18:56:27.6120,-15.23,-16.03,-3.32,22.35
2021-09-03 18:56:27.6210,-3.38,-16.74,-8.0,18.85
2021-09-03 18:56:27.6430,6.59,-15.73,-8.63,19.11
2021-09-03 18:56:27.6450,11.34,-15.42,-5.9,20.02
2021-09-03 18:56:27.6500,12.48,-14.45,-4.61,19.64
2021-09-03 18:56:27.6610,12.72,-12.91,-2.33,18.27
2021-09-03 18:56:27.6700,12.11,-9.03,0.04,15.1
2021-09-03 18:56:27.6800,11.45,-4.93,2.2,12.65
2021-09-03 18:56:27.6910,8.1,-1.91,5.06,9.73
2021-09-03 18:56:27.7010,5.16,-3.0,9.32,11.06
2021-09-03 18:56:27.7110,3.18,-5.44,10.65,12.37
2021-09-03 18:56:27.7210,-0.65,-5.42,10.18,11.55
2021-09-03 18:56:27.7440,-0.99,-4.24,9.74,10.66
2021-09-03 18:56:27.7460,1.93,0.05,10.67,10.84
2021-09-03 18:56:27.7500,6.47,5.94,10.99,14.06
2021-09-03 18:56:27.7620,12.39,8.08,10.49,18.13
2021-09-03 18:56:27.7700,16.1,3.75,7.12,17.99
2021-09-03 18:56:27.7800,19.73,-2.67,5.23,20.58
2021-09-03 18:56:27.7900,21.93,-5.74,4.52,23.11
2021-09-03 18:56:27.8000,19.99,-5.15,5.41,21.33
2021-09-03 18:56:27.8110,17.64,-4.38,6.32,19.24
2021-09-03 18:56:27.8200,15.94,-4.37,6.65,17.81
2021-09-03 18:56:27.8430,14.96,-4.39,7.04,17.1
2021-09-03 18:56:27.8440,13.97,-4.42,7.11,16.28
2021-09-03 18:56:27.8500,12.84,-4.71,7.11,15.41
2021-09-03 18:56:27.8620,10.92,-5.32,7.19,14.11
2021-09-03 18:56:27.8700,8.48,-6.22,7.33,12.81
2021-09-03 18:56:27.8800,5.69,-8.15,7.46,12.42
2021-09-03 18:56:27.8900,2.1,-11.63,6.55,13.51
2021-09-03 18:56:27.9000,-2.15,-14.87,3.43,15.41
2021-09-03 18:56:27.9110,-6.58,-16.32,-0.74,17.61
2021-09-03 18:56:27.9210,-13.11,-17.22,-3.79,21.97
2021-09-03 18:56:27.9440,-18.23,-14.5,-6.6,24.21
2021-09-03 18:56:27.9460,-15.78,-9.33,-7.07,19.64
2021-09-03 18:56:27.9500,-10.53,-6.74,-4.07,13.14
2021-09-03 18:56:27.9610,-8.19,-5.22,-2.15,9.94
2021-09-03 18:56:27.9700,-6.62,-2.16,-2.38,7.35
2021-09-03 18:56:27.9800,-5.19,0.86,-2.52,5.83
2021-09-03 18:56:27.9900,-4.07,3.47,-2.52,5.91
2021-09-03 18:56:28.0000,-2.83,5.44,-1.72,6.36
2021-09-03 18:56:28.0100,-0.78,6.53,-0.62,6.6
2021-09-03 18:56:28.0200,0.55,7.01,0.25,7.03
2021-09-03 18:56:28.0440,0.92,6.88,0.62,6.96
2021-09-03 18:56:28.0460,0.6,6.28,1.03,6.39
2021-09-03 18:56:28.0490,-0.33,5.51,0.31,5.52
2021-09-03 18:56:28.0620,-1.96,4.99,-0.9,5.43
2021-09-03 18:56:28.0690,-3.27,4.84,-2.67,6.42
2021-09-03 18:56:28.0790,-3.98,4.75,-4.9,7.9
2021-09-03 18:56:28.0890,-4.46,4.48,-6.9,9.35
2021-09-03 18:56:28.1000,-5.22,4.14,-8.4,10.72
2021-09-03 18:56:28.1100,-6.19,3.99,-9.61,12.1
2021-09-03 18:56:28.1200,-6.59,4.31,-10.34,12.99
2021-09-03 18:56:28.1420,-7.17,4.95,-10.38,13.55
2021-09-03 18:56:28.1430,-7.91,5.75,-9.84,13.87
2021-09-03 18:56:28.1490,-8.76,5.27,-9.04,13.64
2021-09-03 18:56:28.1620,-9.75,3.57,-7.58,12.85
2021-09-03 18:56:28.1690,-10.93,2.68,-7.3,13.41
2021-09-03 18:56:28.1790,-11.68,4.56,-7.05,14.38
2021-09-03 18:56:28.1890,-11.4,8.76,-6.82,15.91
2021-09-03 18:56:28.1990,-10.26,12.72,-7.74,18.08
2021-09-03 18:56:28.2100,-9.45,14.11,-8.82,19.13
2021-09-03 18:56:28.2190,-9.33,13.78,-8.79,18.82
2021-09-03 18:56:28.2430,-9.4,13.12,-7.39,17.75
2021-09-03 18:56:28.2450,-9.22,12.84,-5.87,16.86
2021-09-03 18:56:28.2490,-18.53,14.35,-2.65,23.58
2021-09-03 18:56:28.2630,-66.82,26.85,-14.46,73.45
2021-09-03 18:56:28.2690,-62.41,-8.24,-34.25,71.66
2021-09-03 18:56:28.2790,-8.47,-64.49,27.96,70.79
2021-09-03 18:56:28.2890,13.31,3.55,34.09,36.76
2021-09-03 18:56:28.2990,11.25,-3.12,-26.13,28.61
2021-09-03 18:56:28.3090,31.06,-15.79,-27.5,44.38
2021-09-03 18:56:28.3190,3.26,16.23,-11.65,20.24
2021-09-03 18:56:28.3430,-21.96,6.81,-11.81,25.84
2021-09-03 18:56:28.3450,-25.54,-6.2,-18.62,32.2
2021-09-03 18:56:28.3480,-4.48,-13.73,-7.86,16.44
2021-09-03 18:56:28.3600,6.14,-7.56,-7.7,12.41
2021-09-03 18:56:28.3690,2.02,-9.24,-5.22,10.8
2021-09-03 18:56:28.3790,-7.32,-13.65,-4.99,16.27
2021-09-03 18:56:28.3890,-10.51,-16.5,-6.71,20.68
2021-09-03 18:56:28.3990,-4.36,-16.04,-6.3,17.77
2021-09-03 18:56:28.4090,4.96,-16.35,-5.12,17.83
2021-09-03 18:56:28.4190,11.76,-17.34,-4.75,21.48
2021-09-03 18:56:28.4400,15.91,-15.8,-2.61,22.57
2021-09-03 18:56:28.4420,15.08,-11.03,-0.45,18.68
2021-09-03 18:56:28.4480,12.57,-7.1,2.26,14.61
2021-09-03 18:56:28.4590,7.92,-2.83,5.67,10.14
2021-09-03 18:56:28.4680,3.66,-1.2,10.34,11.03
2021-09-03 18:56:28.4790,1.61,-2.58,13.32,13.66
2021-09-03 18:56:28.4880,-1.09,-1.77,12.56,12.73
2021-09-03 18:56:28.4990,0.11,-1.48,9.69,9.8
2021-09-03 18:56:28.5090,3.48,-0.83,7.72,8.5
2021-09-03 18:56:28.5180,6.5,0.46,6.35,9.09
2021-09-03 18:56:28.5430,10.66,1.27,5.57,12.09
2021-09-03 18:56:28.5450,13.44,-0.2,4.22,14.08
2021-09-03 18:56:28.5480,15.76,-3.68,3.92,16.65
2021-09-03 18:56:28.5610,18.67,-5.66,4.17,19.94
2021-09-03 18:56:28.5680,19.81,-5.46,5.26,21.21
2021-09-03 18:56:28.5780,19.54,-4.99,7.31,21.45
2021-09-03 18:56:28.5880,18.13,-4.19,7.17,19.94
2021-09-03 18:56:28.5980,16.67,-4.78,6.57,18.54
2021-09-03 18:56:28.6080,15.33,-6.33,6.4,17.77
2021-09-03 18:56:28.6180,14.1,-7.64,6.48,17.29
2021-09-03 18:56:28.6410,12.45,-8.48,6.38,16.35
2021-09-03 18:56:28.6430,10.08,-9.67,6.27,15.31
2021-09-03 18:56:28.6470,6.8,-12.18,6.14,15.24
2021-09-03 18:56:28.6610,1.97,-16.3,5.72,17.38
2021-09-03 18:56:28.6680,-3.65,-19.08,2.91,19.64
2021-09-03 18:56:28.6780,-10.32,-19.03,-2.87,21.83
2021-09-03 18:56:28.6880,-15.5,-16.8,-7.41,24.02
2021-09-03 18:56:28.6980,-12.6,-11.75,-7.76,18.89
2021-09-03 18:56:28.7080,-7.67,-7.79,-4.31,11.75
2021-09-03 18:56:28.7180,-6.12,-5.44,-3.13,8.76
2021-09-03 18:56:28.7400,-6.2,-3.16,-5.33,8.76
2021-09-03 18:56:28.7420,-4.52,-1.6,-6.81,8.32
2021-09-03 18:56:28.7470,-1.9,0.85,-5.31,5.7
2021-09-03 18:56:28.7610,-1.0,4.03,-2.8,5.0
2021-09-03 18:56:28.7670,-0.92,6.32,-0.32,6.39
2021-09-03 18:56:28.7780,-1.06,7.51,0.89,7.63
2021-09-03 18:56:28.7870,-1.16,7.6,0.97,7.74
2021-09-03 18:56:28.7980,-1.03,7.48,1.03,7.62
2021-09-03 18:56:28.8080,-1.16,7.54,0.7,7.66
2021-09-03 18:56:28.8180,-1.96,7.62,-0.02,7.86
2021-09-03 18:56:28.8410,-2.85,7.57,-1.53,8.23
2021-09-03 18:56:28.8440,-3.64,7.33,-3.46,8.88
2021-09-03 18:56:28.8470,-4.21,6.69,-5.05,9.37
2021-09-03 18:56:28.8610,-5.01,5.96,-6.46,10.11
2021-09-03 18:56:28.8670,-6.15,5.02,-7.54,10.94
2021-09-03 18:56:28.8770,-7.05,3.84,-8.01,11.34
2021-09-03 18:56:28.8870,-8.12,3.07,-8.25,11.97
2021-09-03 18:56:28.8970,-9.32,3.27,-9.19,13.49
2021-09-03 18:56:28.9070,-9.29,3.56,-10.47,14.44
2021-09-03 18:56:28.9170,-9.02,2.78,-10.44,14.07
2021-09-03 18:56:28.9400,-10.13,0.67,-9.15,13.66
2021-09-03 18:56:28.9430,-12.9,0.43,-7.62,14.98
2021-09-03 18:56:28.9470,-15.71,4.47,-7.19,17.84
2021-09-03 18:56:28.9570,-16.25,11.23,-7.71,21.2
2021-09-03 18:56:28.9670,-13.3,16.68,-9.13,23.2
2021-09-03 18:56:28.9770,-9.49,17.35,-11.17,22.71
2021-09-03 18:56:28.9870,-7.55,15.25,-11.3,20.42
2021-09-03 18:56:28.9970,-8.62,14.07,-10.29,19.44
2021-09-03 18:56:29.0070,-11.35,14.53,-9.31,20.65
2021-09-03 18:56:29.0170,-19.28,15.14,-7.8,25.72
2021-09-03 18:56:29.0380,-59.59,21.87,-11.79,64.56
2021-09-03 18:56:29.0400,-69.12,-9.51,-28.94,75.53
2021-09-03 18:56:29.0460,-8.94,-67.94,14.16,69.97
2021-09-03 18:56:29.0570,27.06,-0.23,48.68,55.69
2021-09-03 18:56:29.0670,15.77,10.74,-26.05,32.28
2021-09-03 18:56:29.0770,26.46,-21.26,-26.0,42.75
2021-09-03 18:56:29.0870,0.41,19.56,-19.79,27.82
2021-09-03 18:56:29.0970,-31.96,17.55,-14.57,39.26
2021-09-03 18:56:29.1060,-31.96,-7.14,-20.11,38.42
2021-09-03 18:56:29.1170,0.97,-24.53,-11.78,27.22
2021-09-03 18:56:29.1390,16.78,-8.5,-11.58,22.08
2021-09-03 18:56:29.1400,5.9,-1.5,-7.15,9.39
2021-09-03 18:56:29.1460,-14.94,-7.08,-3.66,16.93
2021-09-03 18:56:29.1570,-21.82,-17.82,-4.25,28.49
2021-09-03 18:56:29.1660,-9.26,-21.84,-8.75,25.28
2021-09-03 18:56:29.1770,7.44,-19.05,-11.86,23.64
2021-09-03 18:56:29.1860,17.25,-18.23,-9.92,26.98
2021-09-03 18:56:29.1960,19.51,-17.13,-7.36,26.98
2021-09-03 18:56:29.2060,18.17,-15.41,-4.27,24.2
2021-09-03 18:56:29.2160,14.71,-12.33,-1.13,19.22
2021-09-03 18:56:29.2370,12.07,-7.87,1.98,14.54
2021-09-03 18:56:29.2380,7.49,-3.03,6.3,10.24
2021-09-03 18:56:29.2460,3.7,-1.42,12.11,12.74
2021-09-03 18:56:29.2560,-0.63,0.18,14.02,14.03
2021-09-03 18:56:29.2660,-2.49,0.46,12.58,12.83
2021-09-03 18:56:29.2760,-1.01,-1.82,10.16,10.37
2021-09-03 18:56:29.2860,1.8,-1.85,7.26,7.7
2021-09-03 18:56:29.2960,6.42,-0.34,6.57,9.19
2021-09-03 18:56:29.3060,10.97,0.07,5.46,12.25
2021-09-03 18:56:29.3170,15.19,-2.32,4.49,16.0
2021-09-03 18:56:29.3370,19.71,-5.0,5.28,21.0
2021-09-03 18:56:29.3380,19.96,-4.12,7.21,21.61
2021-09-03 18:56:29.3460,17.23,-2.41,8.71,19.45
2021-09-03 18:56:29.3560,14.65,-2.07,8.13,16.88
2021-09-03 18:56:29.3660,13.11,-2.81,7.74,15.48
2021-09-03 18:56:29.3760,12.87,-4.4,7.88,15.71
2021-09-03 18:56:29.3860,12.95,-6.02,7.99,16.36
2021-09-03 18:56:29.3960,12.76,-7.29,7.66,16.57
2021-09-03 18:56:29.4060,11.27,-8.46,7.32,15.87
2021-09-03 18:56:29.4160,8.54,-9.8,6.93,14.73
2021-09-03 18:56:29.4370,5.06,-11.72,6.38,14.27
2021-09-03 18:56:29.4390,0.49,-15.53,5.67,16.53
2021-09-03 18:56:29.4450,-4.23,-17.41,2.63,18.1
2021-09-03 18:56:29.4560,-9.14,-17.14,-0.37,19.42
2021-09-03 18:56:29.4660,-13.28,-16.11,-1.57,20.93
2021-09-03 18:56:29.4760,-11.77,-10.89,-4.32,16.6
2021-09-03 18:56:29.4850,-6.79,-7.37,-4.18,10.85
2021-09-03 18:56:29.4960,-4.35,-7.55,-1.73,8.88
2021-09-03 18:56:29.5060,-4.71,-6.2,-1.87,8.0
2021-09-03 18:56:29.5160,-4.55,-3.98,-3.59,7.03
2021-09-03 18:56:29.5380,-3.76,-1.22,-4.43,5.93
2021-09-03 18:56:29.5400,-3.2,1.45,-3.49,4.95
2021-09-03 18:56:29.5450,-2.89,3.17,-1.65,4.59
2021-09-03 18:56:29.5560,-2.82,4.31,-0.38,5.16
2021-09-03 18:56:29.5650,-2.92,5.3,0.24,6.05
2021-09-03 18:56:29.5750,-2.73,6.19,0.29,6.77
2021-09-03 18:56:29.5850,-2.37,6.94,0.32,7.34
2021-09-03 18:56:29.5950,-2.98,7.58,0.58,8.16
2021-09-03 18:56:29.6050,-4.08,7.83,-0.37,8.83
2021-09-03 18:56:29.6150,-5.12,7.37,-2.69,9.36
2021-09-03 18:56:29.6360,-5.1,5.97,-5.52,9.59
2021-09-03 18:56:29.6370,-4.79,4.44,-7.96,10.29
2021-09-03 18:56:29.6450,-5.66,2.59,-9.77,11.58
2021-09-03 18:56:29.6550,-7.37,1.06,-11.17,13.42
2021-09-03 18:56:29.6650,-8.96,0.85,-12.15,15.12
2021-09-03 18:56:29.6750,-10.87,2.54,-13.19,17.27
2021-09-03 18:56:29.6850,-11.65,3.81,-12.02,17.16
2021-09-03 18:56:29.6950,-9.89,4.17,-9.5,14.33
2021-09-03 18:56:29.7050,-8.56,3.24,-7.75,11.99
2021-09-03 18:56:29.7150,-10.58,1.63,-7.82,13.25
2021-09-03 18:56:29.7360,-14.61,3.75,-8.26,17.19
2021-09-03 18:56:29.7380,-16.93,11.09,-9.2,22.23
2021-09-03 18:56:29.7440,-15.87,18.26,-11.45,26.76
2021-09-03 18:56:29.7550,-12.76,19.14,-12.48,26.17
2021-09-03 18:56:29.7650,-10.25,15.79,-11.17,21.88
2021-09-03 18:56:29.7750,-9.66,13.69,-10.07,19.54
2021-09-03 18:56:29.7850,-9.42,13.16,-9.51,18.77
2021-09-03 18:56:29.7950,-8.96,12.46,-9.11,17.84
2021-09-03 18:56:29.8050,-23.56,14.77,-7.91,28.91
2021-09-03 18:56:29.8150,-72.09,19.76,-17.34,76.73
2021-09-03 18:56:29.8370,-66.67,-40.36,-24.32,81.64
2021-09-03 18:56:29.8390,3.98,-59.51,50.16,77.93
2021-09-03 18:56:29.8440,21.91,5.41,16.93,28.21
2021-09-03 18:56:29.8550,45.71,-12.46,-36.02,59.51
2021-09-03 18:56:29.8640,22.53,13.46,-34.35,43.22
2021-09-03 18:56:29.8740,-17.7,9.04,-16.83,26.04
2021-09-03 18:56:29.8840,-36.21,-7.83,-17.0,40.76
2021-09-03 18:56:29.8950,-10.54,-14.44,-13.76,22.55
2021-09-03 18:56:29.9040,10.15,-4.74,-7.48,13.46
2021-09-03 18:56:29.9150,4.52,-1.97,-7.04,8.59
2021-09-03 18:56:29.9370,-9.71,-8.76,-4.23,13.74
2021-09-03 18:56:29.9380,-17.78,-14.42,-3.91,23.22
2021-09-03 18:56:29.9440,-11.04,-18.07,-8.15,22.68
2021-09-03 18:56:29.9540,2.16,-16.43,-9.67,19.18
2021-09-03 18:56:29.9640,12.7,-17.31,-8.24,22.99
2021-09-03 18:56:29.9740,18.56,-18.3,-5.66,26.67
2021-09-03 18:56:29.9840,20.6,-14.95,-2.86,25.61
2021-09-03 18:56:29.9940,18.04,-9.66,-0.36,20.46
2021-09-03 18:56:30.0040,14.62,-5.16,2.02,15.63
2021-09-03 18:56:30.0140,8.02,-0.37,4.8,9.35
2021-09-03 18:56:30.0370,3.7,0.24,10.09,10.74
2021-09-03 18:56:30.0380,-0.73,-0.77,12.14,12.18
2021-09-03 18:56:30.0430,-5.02,-1.58,11.51,12.65
2021-09-03 18:56:30.0540,-4.93,-2.3,10.09,11.46
2021-09-03 18:56:30.0640,-0.48,-0.8,9.77,9.81
2021-09-03 18:56:30.0740,5.16,1.13,9.43,10.8
2021-09-03 18:56:30.0840,10.25,1.51,8.34,13.3
2021-09-03 18:56:30.0940,14.12,-0.39,6.84,15.69
2021-09-03 18:56:30.1040,17.66,-2.96,7.77,19.51
2021-09-03 18:56:30.1140,17.45,-3.83,8.08,19.6
2021-09-03 18:56:30.1360,14.82,-3.97,8.69,17.63
2021-09-03 18:56:30.1370,13.48,-3.96,8.92,16.64
2021-09-03 18:56:30.1430,13.32,-4.65,8.42,16.42
2021-09-03 18:56:30.1540,13.91,-5.99,7.88,17.07
2021-09-03 18:56:30.1640,15.17,-7.11,7.53,18.36
2021-09-03 18:56:30.1740,16.0,-7.91,7.25,19.26
2021-09-03 18:56:30.1830,14.98,-8.48,7.2,18.65
2021-09-03 18:56:30.1940,11.89,-9.21,7.2,16.67
2021-09-03 18:56:30.2030,8.18,-10.2,7.04,14.84
2021-09-03 18:56:30.2140,4.85,-11.39,6.52,13.99
2021-09-03 18:56:30.2350,1.21,-13.59,5.78,14.81
2021-09-03 18:56:30.2370,-2.77,-15.33,3.26,15.91
2021-09-03 18:56:30.2430,-6.71,-15.97,-0.67,17.33
2021-09-03 18:56:30.2530,-13.14,-16.04,-4.44,21.2
2021-09-03 18:56:30.2630,-15.33,-11.56,-8.98,21.19
2021-09-03 18:56:30.2730,-9.27,-7.44,-6.74,13.66
2021-09-03 18:56:30.2830,-4.82,-5.67,-2.98,8.01
2021-09-03 18:56:30.2940,-3.77,-2.78,-2.64,5.37
2021-09-03 18:56:30.3030,-2.45,-0.34,-3.04,3.91
2021-09-03 18:56:30.3140,-1.06,1.63,-2.37,3.06
2021-09-03 18:56:30.3370,-1.59,3.68,-0.79,4.08
2021-09-03 18:56:30.3390,-3.29,5.29,0.6,6.25
2021-09-03 18:56:30.3430,-4.5,6.8,1.35,8.26
2021-09-03 18:56:30.3530,-4.63,7.78,1.12,9.12
2021-09-03 18:56:30.3630,-3.63,7.61,0.5,8.44
2021-09-03 18:56:30.3730,-2.78,6.79,-0.4,7.34
2021-09-03 18:56:30.3830,-2.47,5.69,-1.88,6.48
2021-09-03 18:56:30.3930,-2.87,4.7,-3.53,6.54
2021-09-03 18:56:30.4030,-3.95,3.77,-5.4,7.67
2021-09-03 18:56:30.4130,-5.6,3.05,-6.98,9.45
2021-09-03 18:56:30.4360,-8.48,1.92,-7.56,11.52
2021-09-03 18:56:30.4370,-12.1,0.25,-8.02,14.51
2021-09-03 18:56:30.4420,-13.97,-1.16,-9.76,17.08
2021-09-03 18:56:30.4530,-13.02,-0.07,-12.02,17.72
2021-09-03 18:56:30.4630,-9.92,2.52,-12.6,16.23
2021-09-03 18:56:30.4730,-6.43,3.34,-11.72,13.77
2021-09-03 18:56:30.4830,-4.72,1.1,-11.07,12.08
2021-09-03 18:56:30.4930,-7.65,0.08,-9.17,11.94
2021-09-03 18:56:30.5030,-14.1,2.94,-6.3,15.72
2021-09-03 18:56:30.5130,-18.35,8.82,-5.24,21.02
2021-09-03 18:56:30.5340,-18.77,15.25,-7.47,25.31
2021-09-03 18:56:30.5350,-17.45,18.13,-11.31,27.58
2021-09-03 18:56:30.5420,-14.04,16.56,-11.95,24.78
2021-09-03 18:56:30.5530,-10.34,13.91,-10.59,20.31
2021-09-03 18:56:30.5620,-7.46,13.23,-9.63,17.98
2021-09-03 18:56:30.5720,-4.74,13.25,-9.01,16.7
2021-09-03 18:56:30.5830,-2.67,11.58,-9.83,15.42
2021-09-03 18:56:30.5930,-10.63,12.0,-11.81,19.91
2021-09-03 18:56:30.6030,-56.3,23.75,-15.48,63.03
2021-09-03 18:56:30.6130,-77.37,-13.76,-26.23,82.84
2021-09-03 18:56:30.6350,-22.6,-64.57,25.92,73.15
2021-09-03 18:56:30.6360,15.79,9.08,30.38,35.42
2021-09-03 18:56:30.6420,31.01,-12.14,-15.81,36.86
2021-09-03 18:56:30.6520,35.37,-12.21,-19.61,42.24
2021-09-03 18:56:30.6620,-3.35,7.82,-28.56,29.8
2021-09-03 18:56:30.6720,-25.04,-13.45,-22.64,36.33
2021-09-03 18:56:30.6820,-12.61,-16.67,-15.94,26.28
2021-09-03 18:56:30.6920,12.49,-3.6,-7.51,15.01
2021-09-03 18:56:30.7020,9.28,-1.48,-4.21,10.29
2021-09-03 18:56:30.7130,-9.98,-9.71,-1.84,14.04
2021-09-03 18:56:30.7350,-18.27,-16.76,-1.19,24.82
2021-09-03 18:56:30.7360,-10.06,-16.58,-7.81,20.9
2021-09-03 18:56:30.7410,2.8,-14.35,-9.87,17.64
2021-09-03 18:56:30.7520,9.15,-16.56,-7.01,20.17
2021-09-03 18:56:30.7620,12.29,-17.12,-4.95,21.64
2021-09-03 18:56:30.7720,14.14,-13.99,-2.99,20.11
2021-09-03 18:56:30.7820,14.14,-8.79,-1.5,16.71
2021-09-03 18:56:30.7920,14.55,-4.86,0.92,15.36
2021-09-03 18:56:30.8020,10.14,-0.89,4.13,10.98
2021-09-03 18:56:30.8120,6.42,-0.26,7.76,10.07
2021-09-03 18:56:30.8350,3.44,-1.62,9.67,10.39
2021-09-03 18:56:30.8360,-2.04,-2.56,10.11,10.62
2021-09-03 18:56:30.8410,-4.14,-4.31,11.59,13.04
2021-09-03 18:56:30.8520,-3.38,-1.58,11.1,11.71
2021-09-03 18:56:30.8620,3.0,3.68,9.95,11.02
2021-09-03 18:56:30.8710,10.77,4.88,9.41,15.11
2021-09-03 18:56:30.8820,16.46,0.38,6.33,17.63
2021-09-03 18:56:30.8920,22.44,-4.95,6.57,23.9
2021-09-03 18:56:30.9020,23.19,-6.36,8.01,25.34
2021-09-03 18:56:30.9120,18.48,-5.31,9.33,21.37
2021-09-03 18:56:30.9360,14.19,-4.33,9.41,17.56
2021-09-03 18:56:30.9370,11.35,-4.09,9.24,15.19
2021-09-03 18:56:30.9410,9.77,-4.7,9.49,14.4
2021-09-03 18:56:30.9520,9.28,-5.59,9.75,14.57
2021-09-03 18:56:30.9610,9.27,-6.78,9.72,15.04
2021-09-03 18:56:30.9710,9.03,-8.08,8.91,15.04
2021-09-03 18:56:30.9820,7.95,-9.59,7.84,14.71
2021-09-03 18:56:30.9910,6.18,-11.09,6.68,14.34
2021-09-03 18:56:31.0010,3.7,-12.99,5.63,14.63
2021-09-03 18:56:31.0120,0.11,-15.26,4.17,15.81
2021-09-03 18:56:31.0350,-3.58,-15.93,1.58,16.4
2021-09-03 18:56:31.0370,-8.32,-15.57,-0.46,17.65
2021-09-03 18:56:31.0410,-13.69,-14.12,-3.17,19.92
2021-09-03 18:56:31.0510,-12.84,-10.15,-6.38,17.56
2021-09-03 18:56:31.0610,-8.07,-7.96,-4.2,12.08
2021-09-03 18:56:31.0710,-6.06,-6.05,-3.44,9.22
2021-09-03 18:56:31.0810,-5.57,-2.6,-4.75,7.76
2021-09-03 18:56:31.0910,-3.97,0.37,-5.07,6.45
2021-09-03 18:56:31.1010,-2.65,2.8,-3.75,5.37
2021-09-03 18:56:31.1110,-2.18,4.57,-1.9,5.4
2021-09-03 18:56:31.1330,-1.9,5.97,-0.18,6.26
2021-09-03 18:56:31.1340,-2.27,7.13,1.39,7.61
2021-09-03 18:56:31.1410,-2.88,7.75,2.75,8.71
2021-09-03 18:56:31.1510,-3.15,7.97,3.51,9.26
2021-09-03 18:56:31.1610,-2.49,7.36,2.7,8.22
2021-09-03 18:56:31.1710,-1.38,6.27,0.53,6.44
2021-09-03 18:56:31.1810,-0.15,5.56,-2.6,6.13
2021-09-03 18:56:31.1910,0.67,4.73,-6.04,7.7
2021-09-03 18:56:31.2010,0.59,4.22,-8.83,9.8
2021-09-03 18:56:31.2110,-0.62,4.45,-10.18,11.12
2021-09-03 18:56:31.2350,-4.04,3.53,-10.16,11.48
2021-09-03 18:56:31.2360,-9.21,1.61,-10.71,14.21
2021-09-03 18:56:31.2400,-14.62,0.97,-11.48,18.61
2021-09-03 18:56:31.2510,-16.95,1.45,-11.71,20.65
2021-09-03 18:56:31.2610,-13.77,2.19,-12.84,18.95
2021-09-03 18:56:31.2700,-9.29,1.7,-13.28,16.29
2021-09-03 18:56:31.2810,-8.95,1.22,-10.35,13.73
2021-09-03 18:56:31.2900,-12.55,4.72,-7.53,15.37
2021-09-03 18:56:31.3010,-14.67,11.22,-8.44,20.3
2021-09-03 18:56:31.3110,-15.19,16.67,-11.86,25.48
2021-09-03 18:56:31.3330,-14.62,18.96,-13.19,27.33
2021-09-03 18:56:31.3350,-13.03,18.16,-11.07,24.94
2021-09-03 18:56:31.3400,-12.56,15.47,-10.13,22.35
2021-09-03 18:56:31.3500,-12.35,12.43,-9.85,20.1
2021-09-03 18:56:31.3610,-24.22,12.84,-7.92,28.53
2021-09-03 18:56:31.3700,-70.1,18.29,-15.41,74.06
2021-09-03 18:56:31.3800,-62.76,-27.5,-30.16,74.86
2021-09-03 18:56:31.3900,4.53,-58.47,29.71,65.74
2021-09-03 18:56:31.4000,21.85,7.69,25.07,34.13
2021-09-03 18:56:31.4100,41.36,-21.16,-21.31,51.11
2021-09-03 18:56:31.4320,23.86,0.94,-26.86,35.93
2021-09-03 18:56:31.4340,-10.53,14.51,-20.19,27.0
2021-09-03 18:56:31.4400,-37.5,1.02,-20.4,42.7
2021-09-03 18:56:31.4500,-16.7,-16.58,-17.9,29.56
2021-09-03 18:56:31.4600,10.29,-11.21,-11.59,19.12
2021-09-03 18:56:31.4700,10.45,-2.36,-7.65,13.16
2021-09-03 18:56:31.4800,-5.52,-5.24,-5.35,9.3
2021-09-03 18:56:31.4900,-18.54,-13.42,-2.32,23.0
2021-09-03 18:56:31.5000,-15.32,-20.96,-6.01,26.64
2021-09-03 18:56:31.5100,-1.67,-20.83,-9.76,23.06
2021-09-03 18:56:31.5320,11.73,-18.47,-7.98,23.28
2021-09-03 18:56:31.5330,19.07,-17.31,-4.78,26.19
2021-09-03 18:56:31.5390,21.3,-15.3,-2.37,26.33
2021-09-03 18:56:31.5500,18.86,-10.56,-0.75,21.62
2021-09-03 18:56:31.5600,15.34,-5.31,1.41,16.29
2021-09-03 18:56:31.5700,9.5,0.19,4.15,10.36
2021-09-03 18:56:31.5800,5.01,2.08,8.43,10.02
2021-09-03 18:56:31.5900,1.3,0.17,10.51,10.59
2021-09-03 18:56:31.6000,-4.31,-2.19,10.05,11.15
