time,ax,ay,az,atotal
2021-09-03 18:45:41.1360,-0.72,-0.56,-0.52,1.04
2021-09-03 18:45:41.1460,-0.83,-0.64,-0.39,1.11
2021-09-03 18:45:41.1560,-0.24,0.19,0.0,0.3
2021-09-03 18:45:41.1660,-0.5,0.18,0.03,0.53
2021-09-03 18:45:41.1760,-0.76,0.07,-0.08,0.76
2021-09-03 18:45:41.1860,-0.37,0.1,-0.29,0.48
2021-09-03 18:45:41.1960,0.13,0.03,-0.38,0.4
2021-09-03 18:45:41.2060,0.33,0.0,-0.37,0.49
2021-09-03 18:45:41.2220,0.18,-0.04,-0.34,0.38
2021-09-03 18:45:41.2260,0.01,-0.04,-0.27,0.27
2021-09-03 18:45:41.2360,-0.12,-0.08,-0.25,0.28
2021-09-03 18:45:41.2460,-0.11,-0.07,-0.19,0.23
2021-09-03 18:45:41.2560,0.02,-0.01,-0.04,0.04
2021-09-03 18:45:41.2660,0.06,0.03,0.02,0.06
2021-09-03 18:45:41.2760,0.0,0.01,0.06,0.06
2021-09-03 18:45:41.2860,-0.07,0.04,0.09,0.12
2021-09-03 18:45:41.2960,-0.11,-0.05,0.13,0.17
2021-09-03 18:45:41.3060,-0.11,-0.06,0.17,0.21
2021-09-03 18:45:41.3220,-0.09,-0.01,0.19,0.21
2021-09-03 18:45:41.3260,-0.08,0.03,0.17,0.19
2021-09-03 18:45:41.3360,-0.03,-0.01,0.09,0.09
2021-09-03 18:45:41.3460,0.11,0.02,-0.02,0.11
2021-09-03 18:45:41.3550,0.12,0.04,-0.06,0.13
2021-09-03 18:45:41.3660,0.03,0.03,-0.04,0.05
2021-09-03 18:45:41.3750,0.0,0.03,0.01,0.03
2021-09-03 18:45:41.3850,0.05,0.03,0.02,0.06
2021-09-03 18:45:41.3960,0.11,-0.01,0.05,0.12
2021-09-03 18:45:41.4050,0.1,0.01,0.09,0.13
2021-09-03 18:45:41.4210,0.0,0.03,0.11,0.11
2021-09-03 18:45:41.4250,-0.07,0.0,0.09,0.11
2021-09-03 18:45:41.4350,-0.04,-0.02,0.08,0.09
2021-09-03 18:45:41.4450,-0.03,-0.03,0.05,0.06
2021-09-03 18:45:41.4550,0.0,-0.01,0.03,0.03
2021-09-03 18:45:41.4650,-0.05,0.02,0.01,0.05
2021-09-03 18:45:41.4750,-0.06,-0.03,-0.07,0.09
2021-09-03 18:45:41.4850,-0.05,-0.05,-0.1,0.12
2021-09-03 18:45:41.4950,-0.03,-0.02,-0.05,0.06
2021-09-03 18:45:41.5050,0.02,-0.02,-0.06,0.06
2021-09-03 18:45:41.5220,0.03,0.03,0.0,0.04
2021-09-03 18:45:41.5250,0.03,0.04,0.01,0.05
2021-09-03 18:45:41.5350,-0.02,-0.01,-0.04,0.04
2021-09-03 18:45:41.5450,-0.1,0.08,-0.03,0.13
2021-09-03 18:45:41.5550,-0.09,0.04,-0.02,0.1
2021-09-03 18:45:41.5650,-0.01,-0.03,-0.07,0.07
2021-09-03 18:45:41.5750,0.04,0.03,-0.05,0.07
2021-09-03 18:45:41.5850,0.05,0.06,-0.03,0.08
2021-09-03 18:45:41.5950,0.08,0.04,-0.01,0.09
2021-09-03 18:45:41.6050,0.08,0.01,-0.02,0.08
2021-09-03 18:45:41.6220,0.07,-0.02,0.0,0.07
2021-09-03 18:45:41.6260,0.09,0.0,0.09,0.12
2021-09-03 18:45:41.6350,0.12,0.04,0.11,0.16
2021-09-03 18:45:41.6450,0.1,0.0,0.05,0.11
2021-09-03 18:45:41.6540,0.12,0.03,0.06,0.13
2021-09-03 18:45:41.6650,0.15,0.05,0.11,0.19
2021-09-03 18:45:41.6740,0.04,-0.01,0.14,0.14
2021-09-03 18:45:41.6850,-0.03,0.0,0.11,0.11
2021-09-03 18:45:41.6940,0.07,0.04,0.1,0.12
2021-09-03 18:45:41.7050,0.18,0.07,0.14,0.23
2021-09-03 18:45:41.7210,0.24,0.02,0.22,0.32
2021-09-03 18:45:41.7240,0.21,-0.07,0.19,0.29
2021-09-03 18:45:41.7350,0.07,-0.06,0.15,0.17
2021-09-03 18:45:41.7440,-0.07,0.02,0.12,0.14
2021-09-03 18:45:41.7540,-0.19,-0.02,0.12,0.22
2021-09-03 18:45:41.7640,-0.09,0.01,0.19,0.21
2021-09-03 18:45:41.7740,0.06,0.2,0.26,0.33
2021-09-03 18:45:41.7840,0.11,0.11,0.15,0.21
2021-09-03 18:45:41.7950,0.1,0.01,0.05,0.11
2021-09-03 18:45:41.8050,0.08,-0.01,0.0,0.08
2021-09-03 18:45:41.8200,0.23,0.34,0.03,0.41
2021-09-03 18:45:41.8240,0.27,0.27,0.01,0.38
2021-09-03 18:45:41.8340,0.14,-0.03,-0.21,0.25
2021-09-03 18:45:41.8440,-0.12,-0.15,-0.41,0.45
2021-09-03 18:45:41.8540,-0.34,-0.16,-0.5,0.62
2021-09-03 18:45:41.8640,-0.38,-0.06,-0.46,0.59
2021-09-03 18:45:41.8740,-0.45,0.01,-0.31,0.54
2021-09-03 18:45:41.8840,-0.5,-0.01,-0.2,0.53
2021-09-03 18:45:41.8940,-0.43,-0.14,-0.2,0.49
2021-09-03 18:45:41.9040,-0.17,-0.21,-0.26,0.37
2021-09-03 18:45:41.9200,0.14,-0.04,-0.32,0.35
2021-09-03 18:45:41.9240,0.26,0.07,-0.26,0.37
2021-09-03 18:45:41.9340,0.15,-0.1,-0.15,0.23
2021-09-03 18:45:41.9440,0.03,-0.12,-0.06,0.13
2021-09-03 18:45:41.9540,0.07,-0.05,0.01,0.08
2021-09-03 18:45:41.9640,0.31,0.05,0.08,0.32
2021-09-03 18:45:41.9740,0.46,0.16,0.18,0.51
2021-09-03 18:45:41.9840,0.46,0.15,0.36,0.6
2021-09-03 18:45:41.9940,0.4,0.15,0.42,0.59
2021-09-03 18:45:42.0040,0.3,0.03,0.39,0.49
2021-09-03 18:45:42.0200,0.16,0.09,0.29,0.34
2021-09-03 18:45:42.0230,0.14,0.09,0.28,0.32
2021-09-03 18:45:42.0340,0.26,0.13,0.29,0.41
2021-09-03 18:45:42.0440,0.37,0.09,0.23,0.44
2021-09-03 18:45:42.0540,0.3,0.12,0.18,0.36
2021-09-03 18:45:42.0640,0.14,0.07,0.08,0.17
2021-09-03 18:45:42.0740,0.08,-0.01,0.0,0.08
2021-09-03 18:45:42.0840,0.16,-0.06,0.02,0.17
2021-09-03 18:45:42.0940,0.34,0.1,0.11,0.37
2021-09-03 18:45:42.1040,0.3,0.22,0.27,0.45
2021-09-03 18:45:42.1200,-0.09,0.09,0.24,0.27
2021-09-03 18:45:42.1240,-0.25,-0.08,-0.11,0.28
2021-09-03 18:45:42.1330,-0.15,-0.01,-0.36,0.39
2021-09-03 18:45:42.1430,-0.13,0.11,-0.35,0.38
2021-09-03 18:45:42.1530,-0.1,0.01,-0.2,0.22
2021-09-03 18:45:42.1630,-0.01,0.01,-0.2,0.2
2021-09-03 18:45:42.1730,0.01,-0.04,-0.31,0.31
2021-09-03 18:45:42.1840,-0.11,-0.13,-0.41,0.44
2021-09-03 18:45:42.1930,-0.15,-0.08,-0.39,0.42
2021-09-03 18:45:42.2040,-0.09,0.06,-0.25,0.27
2021-09-03 18:45:42.2200,-0.14,-0.01,-0.08,0.16
2021-09-03 18:45:42.2240,-0.22,-0.2,0.04,0.3
2021-09-03 18:45:42.2330,-0.11,-0.02,0.03,0.11
2021-09-03 18:45:42.2430,-0.16,0.13,0.11,0.23
2021-09-03 18:45:42.2530,-0.3,-0.09,0.11,0.33
2021-09-03 18:45:42.2630,-0.43,-0.09,0.13,0.45
2021-09-03 18:45:42.2730,-0.65,0.08,0.4,0.76
2021-09-03 18:45:42.2830,-0.69,-0.07,0.55,0.88
2021-09-03 18:45:42.2930,-0.61,-0.15,0.51,0.8
2021-09-03 18:45:42.3030,-0.74,-0.08,0.52,0.9
2021-09-03 18:45:42.3200,-0.97,0.06,0.55,1.11
2021-09-03 18:45:42.3240,-1.05,0.11,0.63,1.22
2021-09-03 18:45:42.3330,-1.05,0.17,0.81,1.33
2021-09-03 18:45:42.3430,-1.13,0.35,1.06,1.58
2021-09-03 18:45:42.3530,-0.68,0.41,0.31,0.85
2021-09-03 18:45:42.3630,1.34,-0.37,-0.69,1.55
2021-09-03 18:45:42.3730,1.56,0.07,-1.61,2.24
2021-09-03 18:45:42.3830,0.67,-0.36,-1.68,1.84
2021-09-03 18:45:42.3940,0.82,-0.2,-1.07,1.36
2021-09-03 18:45:42.4030,0.96,0.05,-0.71,1.19
2021-09-03 18:45:42.4210,0.83,-0.1,-0.46,0.95
2021-09-03 18:45:42.4250,0.67,0.26,-0.12,0.72
2021-09-03 18:45:42.4330,0.4,0.4,-0.01,0.56
2021-09-03 18:45:42.4420,0.19,0.22,0.15,0.32
2021-09-03 18:45:42.4530,0.1,0.34,0.21,0.41
2021-09-03 18:45:42.4620,0.1,0.26,0.09,0.29
2021-09-03 18:45:42.4730,0.13,0.03,-0.06,0.14
2021-09-03 18:45:42.4830,0.24,-0.11,0.0,0.26
2021-09-03 18:45:42.4930,0.29,0.01,0.11,0.31
2021-09-03 18:45:42.5030,0.28,0.18,0.19,0.38
2021-09-03 18:45:42.5190,0.32,0.12,0.28,0.44
2021-09-03 18:45:42.5230,0.47,-0.01,0.17,0.49
2021-09-03 18:45:42.5320,0.71,0.1,0.1,0.72
2021-09-03 18:45:42.5420,0.72,0.21,0.3,0.8
2021-09-03 18:45:42.5520,0.45,0.1,0.58,0.74
2021-09-03 18:45:42.5620,0.21,0.2,0.58,0.64
2021-09-03 18:45:42.5720,-0.13,0.24,0.39,0.47
2021-09-03 18:45:42.5830,-0.56,-0.07,0.26,0.62
2021-09-03 18:45:42.5920,-0.69,-0.01,0.09,0.69
2021-09-03 18:45:42.6030,-0.65,0.15,0.05,0.66
2021-09-03 18:45:42.6190,-0.54,-0.01,-0.21,0.57
2021-09-03 18:45:42.6230,-0.35,-0.12,-0.37,0.52
2021-09-03 18:45:42.6320,-0.15,-0.13,-0.43,0.47
2021-09-03 18:45:42.6420,-0.29,-0.2,-0.54,0.64
2021-09-03 18:45:42.6520,-0.46,-0.26,-0.67,0.85
2021-09-03 18:45:42.6620,-0.25,-0.17,-0.59,0.66
2021-09-03 18:45:42.6720,-0.19,-0.11,-0.39,0.44
2021-09-03 18:45:42.6820,-0.14,-0.02,-0.4,0.42
2021-09-03 18:45:42.6920,0.01,-0.08,-0.6,0.6
2021-09-03 18:45:42.7020,0.04,-0.25,-0.73,0.77
2021-09-03 18:45:42.7170,-0.35,-0.23,-0.72,0.83
2021-09-03 18:45:42.7220,-0.43,-0.15,-0.69,0.82
2021-09-03 18:45:42.7320,0.03,0.04,-0.64,0.64
2021-09-03 18:45:42.7420,0.12,-0.05,-0.44,0.45
2021-09-03 18:45:42.7520,-0.1,-0.28,-0.18,0.34
2021-09-03 18:45:42.7620,-0.18,-0.31,-0.3,0.46
2021-09-03 18:45:42.7720,0.15,-0.26,-0.46,0.54
2021-09-03 18:45:42.7820,0.14,0.04,-0.16,0.21
2021-09-03 18:45:42.7920,-0.48,-0.02,0.03,0.48
2021-09-03 18:45:42.8020,-0.76,-0.1,0.05,0.76
2021-09-03 18:45:42.8200,-0.43,-0.03,0.01,0.43
2021-09-03 18:45:42.8240,-0.03,0.08,-0.06,0.1
2021-09-03 18:45:42.8310,0.13,0.09,-0.17,0.23
2021-09-03 18:45:42.8410,0.15,0.07,-0.3,0.34
2021-09-03 18:45:42.8510,-0.15,-0.03,-0.49,0.51
2021-09-03 18:45:42.8610,-0.37,-0.05,-0.46,0.59
2021-09-03 18:45:42.8710,-0.17,0.08,-0.35,0.39
2021-09-03 18:45:42.8810,-0.12,0.01,-0.24,0.26
2021-09-03 18:45:42.8920,-0.06,-0.06,-0.14,0.16
2021-09-03 18:45:42.9020,-0.15,-0.08,0.08,0.18
2021-09-03 18:45:42.9180,-0.23,-0.02,0.12,0.26
2021-09-03 18:45:42.9220,0.03,0.32,0.22,0.38
2021-09-03 18:45:42.9310,0.05,0.18,0.39,0.43
2021-09-03 18:45:42.9410,-0.03,-0.18,0.49,0.52
2021-09-03 18:45:42.9510,-0.15,0.01,0.44,0.46
2021-09-03 18:45:42.9610,-0.22,0.0,0.39,0.44
2021-09-03 18:45:42.9710,-0.12,0.18,0.42,0.47
2021-09-03 18:45:42.9810,0.16,0.11,0.5,0.53
2021-09-03 18:45:42.9910,0.15,-0.42,0.52,0.68
2021-09-03 18:45:43.0010,0.1,-0.32,0.66,0.74
2021-09-03 18:45:43.0200,-0.12,-0.19,0.59,0.63
2021-09-03 18:45:43.0230,0.23,-0.12,0.1,0.27
2021-09-03 18:45:43.0310,0.93,0.13,-0.04,0.93
2021-09-03 18:45:43.0410,0.26,-0.1,0.15,0.31
2021-09-03 18:45:43.0510,-0.38,-0.23,0.36,0.57
2021-09-03 18:45:43.0610,-0.15,-0.06,0.4,0.43
2021-09-03 18:45:43.0700,0.18,-0.07,0.35,0.39
2021-09-03 18:45:43.0800,0.4,-0.15,0.37,0.56
2021-09-03 18:45:43.0900,0.16,-0.13,0.33,0.38
2021-09-03 18:45:43.1000,-0.3,0.02,0.22,0.37
2021-09-03 18:45:43.1170,-0.21,0.31,0.08,0.38
2021-09-03 18:45:43.1210,0.28,0.45,0.01,0.53
2021-09-03 18:45:43.1300,0.47,0.3,0.01,0.55
2021-09-03 18:45:43.1410,0.17,0.38,0.03,0.41
2021-09-03 18:45:43.1500,-0.29,0.61,0.03,0.67
2021-09-03 18:45:43.1600,-0.42,0.88,0.12,0.98
2021-09-03 18:45:43.1700,-0.24,0.82,0.24,0.88
2021-09-03 18:45:43.1800,-0.34,0.24,-0.18,0.45
2021-09-03 18:45:43.1910,-0.06,0.14,-0.45,0.47
2021-09-03 18:45:43.2010,0.41,0.21,-0.85,0.96
2021-09-03 18:45:43.2190,0.35,0.11,-0.96,1.02
2021-09-03 18:45:43.2220,0.28,0.04,-0.98,1.02
2021-09-03 18:45:43.2300,0.35,-0.06,-1.13,1.18
2021-09-03 18:45:43.2400,0.23,0.04,-1.05,1.07
2021-09-03 18:45:43.2510,0.1,0.08,-0.83,0.83
2021-09-03 18:45:43.2600,0.03,-0.2,-0.48,0.52
2021-09-03 18:45:43.2710,-0.11,-0.16,-0.11,0.22
2021-09-03 18:45:43.2800,-0.15,0.08,0.12,0.2
2021-09-03 18:45:43.2900,-0.05,0.08,0.14,0.16
2021-09-03 18:45:43.3010,-0.07,0.01,0.2,0.21
2021-09-03 18:45:43.3190,-0.06,-0.02,0.17,0.18
2021-09-03 18:45:43.3220,-0.11,-0.17,-0.16,0.25
2021-09-03 18:45:43.3300,-0.09,-0.23,-0.5,0.55
2021-09-03 18:45:43.3400,0.14,-0.15,-0.65,0.68
2021-09-03 18:45:43.3500,0.35,0.02,-0.61,0.7
2021-09-03 18:45:43.3600,0.25,0.03,-0.52,0.57
2021-09-03 18:45:43.3700,-0.01,-0.04,-0.36,0.36
2021-09-03 18:45:43.3800,-0.31,-0.07,-0.07,0.32
2021-09-03 18:45:43.3900,-0.53,-0.02,0.09,0.53
2021-09-03 18:45:43.4000,-0.27,0.14,0.06,0.31
2021-09-03 18:45:43.4170,0.0,0.07,0.01,0.07
2021-09-03 18:45:43.4210,0.15,0.02,0.05,0.15
2021-09-03 18:45:43.4300,0.13,0.02,-0.01,0.13
2021-09-03 18:45:43.4400,0.11,0.03,-0.2,0.23
2021-09-03 18:45:43.4500,0.17,0.07,-0.3,0.35
2021-09-03 18:45:43.4600,0.25,0.03,-0.37,0.44
2021-09-03 18:45:43.4700,0.38,0.07,-0.35,0.52
2021-09-03 18:45:43.4800,0.47,0.13,-0.32,0.58
2021-09-03 18:45:43.4900,0.41,0.11,-0.34,0.54
2021-09-03 18:45:43.5000,0.26,-0.01,-0.31,0.4
2021-09-03 18:45:43.5170,0.23,-0.02,-0.2,0.3
2021-09-03 18:45:43.5210,0.28,0.13,0.0,0.3
2021-09-03 18:45:43.5290,0.28,0.14,0.17,0.35
2021-09-03 18:45:43.5390,0.09,-0.02,0.12,0.15
2021-09-03 18:45:43.5490,-0.07,-0.02,-0.03,0.07
2021-09-03 18:45:43.5590,-0.06,0.11,-0.15,0.19
2021-09-03 18:45:43.5690,0.08,0.07,-0.15,0.18
2021-09-03 18:45:43.5800,0.4,0.0,-0.18,0.43
2021-09-03 18:45:43.5900,0.34,0.14,-0.41,0.55
2021-09-03 18:45:43.5990,0.07,0.14,-0.51,0.53
2021-09-03 18:45:43.6190,0.09,0.01,-0.63,0.63
2021-09-03 18:45:43.6220,0.33,-0.09,-0.49,0.59
2021-09-03 18:45:43.6290,0.5,-0.04,-0.31,0.58
2021-09-03 18:45:43.6390,0.36,0.01,-0.08,0.36
2021-09-03 18:45:43.6490,-0.26,-0.11,0.15,0.31
2021-09-03 18:45:43.6590,-0.45,-0.19,0.25,0.54
2021-09-03 18:45:43.6690,-0.16,-0.04,0.34,0.37
2021-09-03 18:45:43.6790,0.12,-0.03,0.41,0.42
2021-09-03 18:45:43.6890,0.12,-0.16,0.47,0.51
2021-09-03 18:45:43.6990,-0.19,-0.23,0.45,0.53
2021-09-03 18:45:43.7180,-0.31,-0.01,0.35,0.46
2021-09-03 18:45:43.7220,-0.04,0.1,0.31,0.32
2021-09-03 18:45:43.7290,0.32,-0.03,0.31,0.44
2021-09-03 18:45:43.7390,0.29,-0.05,0.42,0.51
2021-09-03 18:45:43.7490,0.2,-0.01,0.44,0.48
2021-09-03 18:45:43.7590,0.19,-0.08,0.42,0.46
2021-09-03 18:45:43.7690,0.2,-0.05,0.57,0.6
2021-09-03 18:45:43.7790,0.31,-0.01,0.41,0.51
2021-09-03 18:45:43.7890,0.08,0.0,0.33,0.33
2021-09-03 18:45:43.7990,-0.14,-0.03,0.32,0.35
2021-09-03 18:45:43.8170,-0.16,-0.03,0.44,0.46
2021-09-03 18:45:43.8210,-0.13,0.02,0.4,0.42
2021-09-03 18:45:43.8280,-0.13,0.09,0.29,0.33
2021-09-03 18:45:43.8390,-0.25,0.01,0.15,0.29
2021-09-03 18:45:43.8490,-0.25,-0.07,0.03,0.26
2021-09-03 18:45:43.8580,-0.27,-0.03,0.02,0.27
2021-09-03 18:45:43.8690,-0.29,0.01,-0.07,0.29
2021-09-03 18:45:43.8790,-0.42,-0.02,-0.13,0.44
2021-09-03 18:45:43.8890,-0.47,0.0,-0.23,0.52
2021-09-03 18:45:43.8990,-0.29,0.04,-0.35,0.45
2021-09-03 18:45:43.9180,-0.01,0.13,-0.43,0.44
2021-09-03 18:45:43.9210,0.12,0.11,-0.53,0.55
2021-09-03 18:45:43.9280,-0.08,-0.1,-0.61,0.62
2021-09-03 18:45:43.9380,-0.36,-0.07,-0.57,0.67
2021-09-03 18:45:43.9480,-0.35,0.08,-0.44,0.56
2021-09-03 18:45:43.9580,-0.09,0.07,-0.33,0.34
2021-09-03 18:45:43.9680,0.02,0.04,-0.24,0.24
2021-09-03 18:45:43.9780,-0.03,-0.03,-0.23,0.23
2021-09-03 18:45:43.9880,0.02,-0.02,-0.16,0.16
2021-09-03 18:45:43.9980,0.18,0.07,-0.09,0.21
2021-09-03 18:45:44.0170,0.16,0.03,-0.05,0.17
2021-09-03 18:45:44.0200,0.11,0.06,-0.04,0.13
2021-09-03 18:45:44.0280,0.16,0.13,-0.06,0.21
2021-09-03 18:45:44.0380,0.21,0.06,-0.06,0.22
2021-09-03 18:45:44.0480,0.09,-0.06,-0.03,0.11
2021-09-03 18:45:44.0580,-0.01,-0.06,0.05,0.07
2021-09-03 18:45:44.0680,0.05,-0.03,0.13,0.14
2021-09-03 18:45:44.0780,0.09,-0.04,0.18,0.2
2021-09-03 18:45:44.0880,0.05,-0.01,0.27,0.27
2021-09-03 18:45:44.0980,-0.02,0.0,0.28,0.28
2021-09-03 18:45:44.1140,-0.05,0.03,0.22,0.22
2021-09-03 18:45:44.1180,-0.01,0.06,0.13,0.14
2021-09-03 18:45:44.1280,0.06,0.07,0.05,0.1
2021-09-03 18:45:44.1380,0.1,-0.01,0.0,0.1
2021-09-03 18:45:44.1480,0.11,-0.03,-0.01,0.11
2021-09-03 18:45:44.1580,0.14,0.03,-0.07,0.15
2021-09-03 18:45:44.1680,0.1,-0.03,-0.16,0.19
2021-09-03 18:45:44.1770,-0.11,-0.03,-0.19,0.22
2021-09-03 18:45:44.1880,-0.18,0.07,-0.2,0.27
2021-09-03 18:45:44.1980,-0.14,0.04,-0.23,0.27
2021-09-03 18:45:44.2150,-0.1,0.05,-0.22,0.24
2021-09-03 18:45:44.2190,-0.09,0.08,-0.19,0.22
2021-09-03 18:45:44.2270,-0.1,0.07,-0.14,0.18
2021-09-03 18:45:44.2380,-0.07,0.05,-0.1,0.13
2021-09-03 18:45:44.2480,-0.03,0.04,-0.06,0.07
2021-09-03 18:45:44.2570,0.02,0.1,0.0,0.1
2021-09-03 18:45:44.2680,0.06,0.13,0.0,0.14
2021-09-03 18:45:44.2780,0.01,0.06,-0.05,0.07
2021-09-03 18:45:44.2880,-0.09,0.03,-0.05,0.1
2021-09-03 18:45:44.2980,-0.05,-0.04,-0.04,0.07
2021-09-03 18:45:44.3160,0.06,-0.01,0.02,0.06
2021-09-03 18:45:44.3190,0.14,0.12,-0.04,0.18
2021-09-03 18:45:44.3270,0.19,0.14,-0.11,0.26
2021-09-03 18:45:44.3370,-0.04,0.04,-0.09,0.1
2021-09-03 18:45:44.3470,-0.06,-0.06,-0.13,0.15
2021-09-03 18:45:44.3570,0.24,0.03,-0.11,0.26
2021-09-03 18:45:44.3670,0.17,0.08,-0.12,0.22
2021-09-03 18:45:44.3770,-0.15,0.03,-0.09,0.17
2021-09-03 18:45:44.3870,-0.28,0.18,0.07,0.34
2021-09-03 18:45:44.3970,-0.43,0.11,0.19,0.48
2021-09-03 18:45:44.4140,-0.31,0.03,0.2,0.37
2021-09-03 18:45:44.4170,0.03,0.14,0.13,0.19
2021-09-03 18:45:44.4270,0.07,0.13,0.03,0.15
2021-09-03 18:45:44.4370,0.03,-0.04,-0.1,0.11
2021-09-03 18:45:44.4470,0.0,-0.16,-0.06,0.17
2021-09-03 18:45:44.4570,-0.18,-0.13,0.05,0.22
2021-09-03 18:45:44.4670,-0.27,0.04,0.17,0.32
2021-09-03 18:45:44.4770,-0.14,0.16,0.29,0.35
2021-09-03 18:45:44.4870,0.05,0.08,0.28,0.29
2021-09-03 18:45:44.4970,0.05,-0.07,0.21,0.22
2021-09-03 18:45:44.5160,-0.24,-0.22,0.2,0.38
2021-09-03 18:45:44.5190,-0.3,-0.24,0.21,0.43
2021-09-03 18:45:44.5270,0.04,-0.08,0.2,0.21
2021-09-03 18:45:44.5370,0.08,-0.1,0.1,0.16
2021-09-03 18:45:44.5470,-0.14,-0.08,-0.21,0.26
2021-09-03 18:45:44.5570,-0.31,0.03,-0.28,0.41
2021-09-03 18:45:44.5670,-0.37,-0.1,-0.14,0.4
2021-09-03 18:45:44.5770,-0.2,-0.17,-0.03,0.26
2021-09-03 18:45:44.5870,-0.04,-0.08,-0.01,0.09
2021-09-03 18:45:44.5970,0.12,-0.07,-0.13,0.19
2021-09-03 18:45:44.6140,0.05,-0.05,-0.23,0.24
2021-09-03 18:45:44.6170,0.0,0.01,-0.18,0.18
2021-09-03 18:45:44.6260,-0.06,-0.07,-0.16,0.18
2021-09-03 18:45:44.6360,0.11,-0.09,-0.13,0.19
2021-09-03 18:45:44.6470,0.26,-0.06,-0.07,0.27
2021-09-03 18:45:44.6560,0.19,-0.08,0.08,0.22
2021-09-03 18:45:44.6660,-0.03,-0.04,0.37,0.37
2021-09-03 18:45:44.6760,-0.04,0.01,0.5,0.5
2021-09-03 18:45:44.6870,0.04,-0.02,0.4,0.4
2021-09-03 18:45:44.6960,0.07,-0.02,0.29,0.29
2021-09-03 18:45:44.7150,0.17,0.06,0.17,0.24
2021-09-03 18:45:44.7180,-0.11,0.0,0.33,0.34
2021-09-03 18:45:44.7260,-0.36,-0.09,0.49,0.61
2021-09-03 18:45:44.7360,-0.22,-0.02,0.52,0.56
2021-09-03 18:45:44.7460,-0.12,0.05,0.37,0.39
2021-09-03 18:45:44.7560,0.08,0.16,0.15,0.23
2021-09-03 18:45:44.7660,0.2,0.21,-0.07,0.29
2021-09-03 18:45:44.7760,-0.03,0.04,-0.09,0.1
2021-09-03 18:45:44.7860,-0.34,-0.12,0.06,0.36
2021-09-03 18:45:44.7960,-0.36,-0.01,0.2,0.41
2021-09-03 18:45:44.8140,-0.16,0.12,0.26,0.32
2021-09-03 18:45:44.8180,0.08,0.11,0.24,0.27
2021-09-03 18:45:44.8250,-0.01,-0.01,0.13,0.13
2021-09-03 18:45:44.8360,-0.21,-0.03,0.03,0.21
2021-09-03 18:45:44.8460,-0.22,0.08,0.05,0.23
2021-09-03 18:45:44.8560,-0.19,0.02,-0.02,0.19
2021-09-03 18:45:44.8660,0.02,0.11,-0.12,0.16
2021-09-03 18:45:44.8760,0.23,0.16,-0.08,0.29
2021-09-03 18:45:44.8860,0.01,-0.06,0.06,0.08
2021-09-03 18:45:44.8960,-0.14,-0.08,0.27,0.31
2021-09-03 18:45:44.9130,-0.14,0.04,0.28,0.31
2021-09-03 18:45:44.9170,-0.22,-0.04,0.25,0.33
2021-09-03 18:45:44.9260,-0.25,-0.08,0.24,0.35
2021-09-03 18:45:44.9350,-0.4,-0.02,0.26,0.47
2021-09-03 18:45:44.9460,-0.41,0.0,0.13,0.43
2021-09-03 18:45:44.9550,-0.26,0.08,0.0,0.27
2021-09-03 18:45:44.9660,-0.05,0.13,-0.13,0.19
2021-09-03 18:45:44.9750,0.07,0.16,-0.17,0.24
2021-09-03 18:45:44.9850,-0.05,-0.02,-0.17,0.17
2021-09-03 18:45:44.9950,-0.17,-0.1,-0.1,0.22
2021-09-03 18:45:45.0130,-0.17,-0.02,-0.1,0.19
2021-09-03 18:45:45.0160,-0.2,0.04,-0.13,0.24
2021-09-03 18:45:45.0250,-0.39,0.07,-0.15,0.42
2021-09-03 18:45:45.0350,-0.3,0.05,-0.13,0.33
2021-09-03 18:45:45.0450,-0.2,-0.12,0.03,0.23
2021-09-03 18:45:45.0560,-0.34,-0.33,0.18,0.5
2021-09-03 18:45:45.0650,-0.19,-0.08,0.21,0.29
2021-09-03 18:45:45.0750,0.04,0.12,0.15,0.19
2021-09-03 18:45:45.0860,0.0,-0.09,0.08,0.12
2021-09-03 18:45:45.0950,-0.07,-0.17,0.08,0.2
2021-09-03 18:45:45.1140,-0.17,-0.1,0.18,0.26
2021-09-03 18:45:45.1180,-0.39,-0.28,0.39,0.61
2021-09-03 18:45:45.1250,-0.53,-0.46,0.56,0.89
2021-09-03 18:45:45.1350,-0.53,-0.45,0.74,1.01
2021-09-03 18:45:45.1450,-0.36,-0.33,0.81,0.94
2021-09-03 18:45:45.1550,-0.1,-0.15,0.63,0.65
2021-09-03 18:45:45.1650,0.12,0.06,0.24,0.27
2021-09-03 18:45:45.1750,0.15,0.16,-0.12,0.25
2021-09-03 18:45:45.1850,0.15,0.15,-0.4,0.45
2021-09-03 18:45:45.1950,0.19,0.15,-0.52,0.57
2021-09-03 18:45:45.2120,0.24,0.15,-0.57,0.63
2021-09-03 18:45:45.2160,0.23,0.17,-0.5,0.57
2021-09-03 18:45:45.2240,0.18,0.13,-0.44,0.49
2021-09-03 18:45:45.2350,0.09,-0.06,-0.44,0.45
2021-09-03 18:45:45.2450,0.07,-0.26,-0.57,0.63
2021-09-03 18:45:45.2550,0.14,-0.32,-0.68,0.76
2021-09-03 18:45:45.2650,0.14,-0.25,-0.66,0.71
2021-09-03 18:45:45.2750,0.11,-0.14,-0.65,0.67
2021-09-03 18:45:45.2850,0.03,0.0,-0.59,0.59
2021-09-03 18:45:45.2950,-0.15,-0.13,-0.4,0.44
2021-09-03 18:45:45.3110,-0.35,-0.39,-0.16,0.54
2021-09-03 18:45:45.3150,-0.44,-0.5,0.14,0.68
2021-09-03 18:45:45.3240,-0.45,-0.65,0.48,0.92
2021-09-03 18:45:45.3340,-0.31,-0.92,0.66,1.17
2021-09-03 18:45:45.3450,-0.11,-1.07,0.77,1.32
2021-09-03 18:45:45.3540,-0.02,-1.09,0.87,1.39
2021-09-03 18:45:45.3650,-0.05,-1.03,0.91,1.37
2021-09-03 18:45:45.3740,-0.26,-1.1,1.08,1.56
2021-09-03 18:45:45.3850,-0.41,-1.35,1.12,1.8
2021-09-03 18:45:45.3950,-0.27,-1.12,1.06,1.56
2021-09-03 18:45:45.4110,-0.48,-0.74,1.28,1.55
2021-09-03 18:45:45.4150,-0.74,-0.74,1.36,1.71
2021-09-03 18:45:45.4240,-0.8,-0.69,1.4,1.75
2021-09-03 18:45:45.4340,-0.86,-0.38,1.61,1.86
2021-09-03 18:45:45.4440,-0.8,-0.18,1.63,1.82
2021-09-03 18:45:45.4540,-0.8,0.07,1.32,1.54
2021-09-03 18:45:45.4640,-1.54,0.36,1.0,1.87
2021-09-03 18:45:45.4740,-2.62,0.14,1.0,2.8
2021-09-03 18:45:45.4840,-3.26,-0.46,1.2,3.5
2021-09-03 18:45:45.4940,-3.14,-0.75,1.55,3.58
2021-09-03 18:45:45.5090,-2.93,-0.55,1.82,3.49
2021-09-03 18:45:45.5130,-3.08,-0.39,1.76,3.56
2021-09-03 18:45:45.5240,-3.19,-0.37,1.29,3.46
2021-09-03 18:45:45.5340,-2.89,-0.45,0.91,3.06
2021-09-03 18:45:45.5440,-2.44,-0.46,0.8,2.6
2021-09-03 18:45:45.5540,-2.38,-0.41,0.8,2.54
2021-09-03 18:45:45.5640,-2.64,-0.37,0.61,2.73
2021-09-03 18:45:45.5740,-2.62,-0.45,0.28,2.67
2021-09-03 18:45:45.5840,-2.07,-0.28,-0.01,2.08
2021-09-03 18:45:45.5940,-1.56,-0.23,0.01,1.57
2021-09-03 18:45:45.6100,-1.63,-0.18,-0.08,1.64
2021-09-03 18:45:45.6140,-1.65,0.18,-0.49,1.73
2021-09-03 18:45:45.6240,-1.35,0.36,-0.78,1.6
2021-09-03 18:45:45.6330,-0.78,0.53,-1.07,1.42
2021-09-03 18:45:45.6440,-0.06,0.89,-1.31,1.58
2021-09-03 18:45:45.6540,0.58,0.68,-2.03,2.21
2021-09-03 18:45:45.6640,1.0,1.06,-2.62,2.99
2021-09-03 18:45:45.6740,1.03,1.85,-2.76,3.47
2021-09-03 18:45:45.6840,1.44,1.99,-2.96,3.84
2021-09-03 18:45:45.6940,2.43,2.36,-3.1,4.59
2021-09-03 18:45:45.7110,2.96,2.6,-3.21,5.08
2021-09-03 18:45:45.7150,3.29,2.5,-3.23,5.24
2021-09-03 18:45:45.7230,3.62,2.56,-3.3,5.52
2021-09-03 18:45:45.7330,4.2,2.52,-3.1,5.79
2021-09-03 18:45:45.7440,4.11,2.32,-2.58,5.37
2021-09-03 18:45:45.7530,7.34,2.16,-3.39,8.36
2021-09-03 18:45:45.7630,12.24,2.22,-2.84,12.75
2021-09-03 18:45:45.7730,12.83,2.25,-2.05,13.18
2021-09-03 18:45:45.7840,6.22,0.93,-2.29,6.69
2021-09-03 18:45:45.7930,-3.2,-1.81,-3.05,4.77
2021-09-03 18:45:45.8090,-6.65,-3.25,-3.47,8.17
2021-09-03 18:45:45.8130,-2.78,-2.77,0.53,3.96
2021-09-03 18:45:45.8230,0.75,-3.88,5.95,7.14
2021-09-03 18:45:45.8330,2.52,-3.69,4.85,6.59
2021-09-03 18:45:45.8430,2.91,-1.84,1.34,3.69
2021-09-03 18:45:45.8530,1.8,-0.81,-0.79,2.12
2021-09-03 18:45:45.8630,1.48,-0.32,-0.92,1.77
2021-09-03 18:45:45.8730,1.35,0.1,-0.77,1.55
2021-09-03 18:45:45.8830,0.44,0.46,-0.76,0.99
2021-09-03 18:45:45.8930,-0.37,0.65,-0.43,0.86
2021-09-03 18:45:45.9090,-0.41,0.47,-0.01,0.62
2021-09-03 18:45:45.9120,0.13,0.34,0.16,0.39
2021-09-03 18:45:45.9230,1.21,0.31,0.24,1.27
2021-09-03 18:45:45.9330,2.04,0.12,0.4,2.08
2021-09-03 18:45:45.9430,1.63,-0.4,0.64,1.79
2021-09-03 18:45:45.9530,0.38,-0.73,0.91,1.22
2021-09-03 18:45:45.9630,-0.15,-0.55,1.14,1.27
2021-09-03 18:45:45.9720,0.11,-0.32,1.52,1.55
2021-09-03 18:45:45.9830,-0.04,-0.42,1.6,1.65
2021-09-03 18:45:45.9930,-0.43,-0.38,1.24,1.36
2021-09-03 18:45:46.0080,-0.28,-0.06,0.58,0.64
2021-09-03 18:45:46.0120,0.12,-0.03,0.03,0.12
2021-09-03 18:45:46.0220,0.25,-0.3,-0.39,0.55
2021-09-03 18:45:46.0330,0.09,-0.37,-0.83,0.91
2021-09-03 18:45:46.0430,-0.12,-0.27,-1.05,1.09
2021-09-03 18:45:46.0520,-0.12,-0.4,-0.88,0.97
2021-09-03 18:45:46.0620,-0.25,-0.5,-0.48,0.73
2021-09-03 18:45:46.0720,-0.47,-0.33,-0.33,0.66
2021-09-03 18:45:46.0830,-0.75,-0.06,-0.36,0.83
2021-09-03 18:45:46.0930,-1.09,0.12,-0.5,1.2
2021-09-03 18:45:46.1090,-1.32,0.13,-0.66,1.48
2021-09-03 18:45:46.1120,-1.27,0.08,-0.99,1.61
2021-09-03 18:45:46.1220,-0.88,0.05,-1.23,1.51
2021-09-03 18:45:46.1320,-0.51,0.03,-1.23,1.33
2021-09-03 18:45:46.1420,-0.37,-0.05,-1.1,1.16
2021-09-03 18:45:46.1520,-0.41,-0.14,-0.92,1.01
2021-09-03 18:45:46.1620,-0.29,-0.12,-0.71,0.77
2021-09-03 18:45:46.1720,-0.15,0.01,-0.44,0.46
2021-09-03 18:45:46.1820,-0.13,0.09,-0.23,0.27
2021-09-03 18:45:46.1920,-0.19,0.13,-0.1,0.25
2021-09-03 18:45:46.2090,-0.19,0.18,0.01,0.26
2021-09-03 18:45:46.2120,-0.32,0.09,0.13,0.35
2021-09-03 18:45:46.2220,-0.4,0.0,0.12,0.41
2021-09-03 18:45:46.2320,-0.2,-0.01,0.13,0.23
2021-09-03 18:45:46.2420,-0.03,0.02,0.09,0.09
2021-09-03 18:45:46.2520,0.17,0.03,0.04,0.17
2021-09-03 18:45:46.2620,0.09,0.09,0.2,0.23
2021-09-03 18:45:46.2720,-0.13,0.09,0.3,0.33
2021-09-03 18:45:46.2820,0.02,0.15,0.34,0.37
2021-09-03 18:45:46.2920,0.42,0.11,0.32,0.53
2021-09-03 18:45:46.3070,0.91,0.1,0.23,0.94
2021-09-03 18:45:46.3110,1.0,0.16,0.3,1.05
2021-09-03 18:45:46.3220,0.44,0.14,0.44,0.63
2021-09-03 18:45:46.3320,0.07,-0.01,0.49,0.49
2021-09-03 18:45:46.3410,0.1,0.07,0.53,0.54
2021-09-03 18:45:46.3520,0.37,0.19,0.52,0.66
2021-09-03 18:45:46.3610,0.52,0.21,0.53,0.77
2021-09-03 18:45:46.3720,0.48,0.08,0.68,0.83
2021-09-03 18:45:46.3820,0.45,-0.04,0.71,0.84
2021-09-03 18:45:46.3920,0.53,0.12,0.7,0.88
2021-09-03 18:45:46.4090,0.48,0.13,0.75,0.89
2021-09-03 18:45:46.4120,0.25,0.03,0.7,0.74
2021-09-03 18:45:46.4210,0.13,0.09,0.72,0.73
2021-09-03 18:45:46.4310,-0.03,0.05,0.81,0.81
2021-09-03 18:45:46.4410,-0.03,-0.05,0.75,0.75
2021-09-03 18:45:46.4510,0.12,0.07,0.7,0.71
2021-09-03 18:45:46.4610,-0.03,0.05,0.72,0.72
2021-09-03 18:45:46.4710,0.03,-0.07,0.71,0.71
2021-09-03 18:45:46.4810,0.24,0.06,0.81,0.84
2021-09-03 18:45:46.4910,0.35,0.2,0.93,1.01
2021-09-03 18:45:46.5070,0.07,0.12,1.05,1.05
2021-09-03 18:45:46.5110,-0.13,-0.02,0.98,0.98
2021-09-03 18:45:46.5210,0.01,0.07,0.82,0.82
2021-09-03 18:45:46.5310,0.29,0.22,0.61,0.71
2021-09-03 18:45:46.5410,0.41,0.17,0.63,0.77
2021-09-03 18:45:46.5510,0.35,-0.09,1.03,1.09
2021-09-03 18:45:46.5610,0.5,-0.19,1.53,1.62
2021-09-03 18:45:46.5710,0.52,0.04,1.5,1.58
2021-09-03 18:45:46.5810,0.83,0.2,1.41,1.64
2021-09-03 18:45:46.5910,1.17,0.08,0.54,1.29
2021-09-03 18:45:46.6090,0.44,-0.09,-0.31,0.54
2021-09-03 18:45:46.6130,-0.18,-0.22,-0.08,0.29
2021-09-03 18:45:46.6200,-0.22,-0.28,0.4,0.53
2021-09-03 18:45:46.6310,-0.35,-0.28,0.02,0.44
2021-09-03 18:45:46.6410,-0.51,-0.39,-0.49,0.8
2021-09-03 18:45:46.6510,-0.28,-0.13,-0.51,0.59
2021-09-03 18:45:46.6600,-0.09,-0.21,-0.44,0.49
2021-09-03 18:45:46.6710,-0.66,-0.46,-1.4,1.61
2021-09-03 18:45:46.6810,-2.17,-0.62,-2.27,3.2
2021-09-03 18:45:46.6910,-3.25,-0.34,-2.68,4.22
2021-09-03 18:45:46.7070,-3.09,0.16,-2.42,3.92
2021-09-03 18:45:46.7110,-2.26,-0.86,-1.68,2.94
2021-09-03 18:45:46.7210,-1.14,-2.96,-0.94,3.3
2021-09-03 18:45:46.7310,-0.21,-3.75,-1.2,3.94
2021-09-03 18:45:46.7400,-0.17,-4.4,-1.28,4.58
2021-09-03 18:45:46.7510,0.01,-4.89,-1.15,5.02
2021-09-03 18:45:46.7600,0.52,-5.16,-0.99,5.27
2021-09-03 18:45:46.7700,1.39,-4.62,-1.63,5.09
2021-09-03 18:45:46.7800,2.82,-3.91,-1.5,5.04
2021-09-03 18:45:46.7900,2.64,-3.14,-0.04,4.1
2021-09-03 18:45:46.8060,1.96,-3.18,0.62,3.78
2021-09-03 18:45:46.8110,1.66,-3.57,1.41,4.18
2021-09-03 18:45:46.8200,1.73,-3.25,2.12,4.24
2021-09-03 18:45:46.8300,1.66,-2.66,3.02,4.35
2021-09-03 18:45:46.8400,0.58,-2.33,3.23,4.02
2021-09-03 18:45:46.8500,-1.26,-1.97,3.08,3.86
2021-09-03 18:45:46.8600,-3.75,-1.41,3.19,5.12
2021-09-03 18:45:46.8700,-5.97,-1.18,2.8,6.69
2021-09-03 18:45:46.8800,-7.63,-1.01,1.23,7.79
2021-09-03 18:45:46.8900,-8.58,0.24,-0.76,8.61
2021-09-03 18:45:46.9060,-8.64,0.68,-1.85,8.86
2021-09-03 18:45:46.9100,-7.68,-0.83,-2.5,8.11
2021-09-03 18:45:46.9200,-4.86,-2.13,-1.35,5.47
2021-09-03 18:45:46.9300,-2.46,-2.01,0.01,3.17
2021-09-03 18:45:46.9400,-1.45,-1.28,0.04,1.93
2021-09-03 18:45:46.9500,-0.96,-0.81,-0.2,1.27
2021-09-03 18:45:46.9600,-0.48,-0.61,-0.13,0.78
2021-09-03 18:45:46.9700,-0.23,-0.75,0.12,0.79
2021-09-03 18:45:46.9800,-1.31,-0.56,0.31,1.45
2021-09-03 18:45:46.9900,-3.48,0.29,0.28,3.5
2021-09-03 18:45:47.0070,-5.12,0.5,0.27,5.15
2021-09-03 18:45:47.0110,-5.7,0.15,-0.17,5.7
2021-09-03 18:45:47.0200,-5.36,-0.21,-0.94,5.44
2021-09-03 18:45:47.0300,-4.75,-0.16,-1.71,5.05
2021-09-03 18:45:47.0390,-4.13,0.36,-2.29,4.73
2021-09-03 18:45:47.0500,-3.63,0.87,-2.63,4.56
2021-09-03 18:45:47.0590,-3.02,0.84,-2.31,3.89
2021-09-03 18:45:47.0700,-2.44,0.89,-1.71,3.1
2021-09-03 18:45:47.0800,-2.2,1.21,-1.14,2.75
2021-09-03 18:45:47.0900,-2.24,1.22,-0.69,2.64
2021-09-03 18:45:47.1060,-2.38,0.87,-0.54,2.59
2021-09-03 18:45:47.1110,-2.5,0.91,-0.6,2.72
2021-09-03 18:45:47.1190,-2.66,1.08,-0.62,2.93
2021-09-03 18:45:47.1290,-2.77,1.09,-0.49,3.01
2021-09-03 18:45:47.1390,-2.88,1.22,-0.29,3.14
2021-09-03 18:45:47.1490,-2.86,1.19,-0.17,3.1
2021-09-03 18:45:47.1590,-2.2,1.11,-0.21,2.47
2021-09-03 18:45:47.1690,-1.29,1.17,-0.2,1.75
2021-09-03 18:45:47.1790,-0.79,1.23,-0.08,1.46
2021-09-03 18:45:47.1890,-0.62,1.18,0.02,1.33
2021-09-03 18:45:47.2050,-0.29,1.09,0.15,1.13
2021-09-03 18:45:47.2090,0.0,0.95,0.39,1.02
2021-09-03 18:45:47.2190,0.05,0.72,0.55,0.9
2021-09-03 18:45:47.2290,0.21,0.6,0.65,0.9
2021-09-03 18:45:47.2390,0.3,0.62,0.84,1.08
2021-09-03 18:45:47.2490,0.34,0.49,1.25,1.38
2021-09-03 18:45:47.2590,0.58,0.28,1.69,1.8
2021-09-03 18:45:47.2690,1.11,0.11,2.02,2.3
2021-09-03 18:45:47.2790,1.72,0.15,2.22,2.81
2021-09-03 18:45:47.2890,2.14,-0.01,2.45,3.25
2021-09-03 18:45:47.3050,2.36,-0.22,2.63,3.54
2021-09-03 18:45:47.3090,2.57,-0.28,2.92,3.89
2021-09-03 18:45:47.3190,2.9,-0.15,3.11,4.25
2021-09-03 18:45:47.3290,3.09,-0.35,3.34,4.56
2021-09-03 18:45:47.3390,3.4,-0.58,3.47,4.89
2021-09-03 18:45:47.3490,4.05,-0.65,3.53,5.41
2021-09-03 18:45:47.3590,4.73,-0.6,3.65,6.0
2021-09-03 18:45:47.3690,5.26,-0.72,3.88,6.57
2021-09-03 18:45:47.3790,5.74,-0.86,4.12,7.11
2021-09-03 18:45:47.3890,6.06,-0.95,4.51,7.61
2021-09-03 18:45:47.4050,6.29,-0.88,4.74,7.92
2021-09-03 18:45:47.4090,6.65,-0.91,4.89,8.3
2021-09-03 18:45:47.4190,7.15,-1.22,5.09,8.86
2021-09-03 18:45:47.4290,7.34,-1.52,5.31,9.18
2021-09-03 18:45:47.4380,7.17,-1.7,5.32,9.08
2021-09-03 18:45:47.4490,4.82,-1.26,3.73,6.22
2021-09-03 18:45:47.4580,-3.28,-0.82,-3.22,4.66
2021-09-03 18:45:47.4690,-14.09,-6.05,-11.98,19.45
2021-09-03 18:45:47.4780,-19.7,-10.36,-16.89,27.94
2021-09-03 18:45:47.4880,-10.19,-11.11,-10.87,18.58
2021-09-03 18:45:47.5040,3.2,-3.09,3.49,5.65
2021-09-03 18:45:47.5080,9.83,9.11,13.26,18.85
2021-09-03 18:45:47.5180,10.82,7.27,9.52,16.14
2021-09-03 18:45:47.5280,7.46,-5.29,-2.81,9.56
2021-09-03 18:45:47.5380,3.33,-9.41,-6.36,11.83
2021-09-03 18:45:47.5480,3.24,-2.5,-1.42,4.33
2021-09-03 18:45:47.5580,3.75,-0.85,0.79,3.92
2021-09-03 18:45:47.5680,0.96,-3.87,-0.92,4.09
2021-09-03 18:45:47.5780,2.46,-3.56,-1.75,4.66
2021-09-03 18:45:47.5880,4.49,-4.66,-1.94,6.75
2021-09-03 18:45:47.6040,3.57,-5.54,-0.52,6.61
2021-09-03 18:45:47.6080,1.35,-4.66,1.06,4.96
2021-09-03 18:45:47.6180,0.72,-4.66,1.08,4.83
2021-09-03 18:45:47.6280,2.31,-3.46,0.75,4.22
2021-09-03 18:45:47.6380,2.67,-1.45,0.36,3.05
2021-09-03 18:45:47.6480,0.36,-0.24,-0.43,0.61
2021-09-03 18:45:47.6580,-1.6,0.23,-1.15,1.98
2021-09-03 18:45:47.6680,-1.42,-0.33,-1.49,2.08
2021-09-03 18:45:47.6780,-0.39,-1.87,-1.55,2.45
2021-09-03 18:45:47.6880,0.06,-3.14,-0.48,3.17
2021-09-03 18:45:47.7040,-0.1,-2.95,0.83,3.06
2021-09-03 18:45:47.7070,0.22,-2.68,1.31,2.99
2021-09-03 18:45:47.7180,0.4,-1.96,1.12,2.29
2021-09-03 18:45:47.7280,-0.79,-1.31,0.11,1.53
2021-09-03 18:45:47.7380,-1.5,-0.91,-0.85,1.94
2021-09-03 18:45:47.7480,-1.37,-0.42,-0.99,1.74
2021-09-03 18:45:47.7570,-1.83,0.07,-0.98,2.07
2021-09-03 18:45:47.7680,-2.26,0.09,-0.98,2.46
2021-09-03 18:45:47.7770,-2.03,0.0,-0.91,2.22
2021-09-03 18:45:47.7880,-1.53,-0.27,-0.9,1.79
2021-09-03 18:45:47.8040,-0.84,-0.53,-0.93,1.36
2021-09-03 18:45:47.8080,-0.06,-0.44,-0.95,1.04
2021-09-03 18:45:47.8170,0.18,-0.21,-0.96,0.99
2021-09-03 18:45:47.8270,0.22,-0.05,-0.86,0.88
2021-09-03 18:45:47.8380,0.18,0.38,-0.68,0.79
2021-09-03 18:45:47.8480,-0.02,0.64,-0.56,0.85
2021-09-03 18:45:47.8570,-0.12,0.63,-0.28,0.69
2021-09-03 18:45:47.8670,-0.19,0.62,-0.02,0.64
2021-09-03 18:45:47.8780,-0.07,0.77,0.21,0.8
2021-09-03 18:45:47.8880,0.02,1.08,0.23,1.1
2021-09-03 18:45:47.9040,0.25,1.08,0.28,1.14
2021-09-03 18:45:47.9080,0.55,1.02,0.52,1.27
2021-09-03 18:45:47.9170,0.89,0.91,0.71,1.45
2021-09-03 18:45:47.9270,1.41,0.66,0.61,1.67
2021-09-03 18:45:47.9370,2.05,0.61,0.42,2.17
2021-09-03 18:45:47.9470,2.18,0.47,0.66,2.32
2021-09-03 18:45:47.9570,1.58,0.37,0.84,1.82
2021-09-03 18:45:47.9670,0.84,0.58,0.92,1.37
2021-09-03 18:45:47.9770,0.28,0.67,1.14,1.35
2021-09-03 18:45:47.9870,-0.13,0.63,1.13,1.3
2021-09-03 18:45:48.0040,-0.09,0.56,0.9,1.06
2021-09-03 18:45:48.0080,0.21,0.46,0.76,0.91
2021-09-03 18:45:48.0170,0.38,0.35,0.76,0.91
2021-09-03 18:45:48.0270,0.46,0.03,0.72,0.85
2021-09-03 18:45:48.0370,0.6,-0.15,0.41,0.74
2021-09-03 18:45:48.0470,0.87,-0.05,0.15,0.88
2021-09-03 18:45:48.0570,0.95,-0.11,0.33,1.01
2021-09-03 18:45:48.0670,0.38,-0.34,0.69,0.85
2021-09-03 18:45:48.0770,-0.5,-0.33,0.61,0.85
2021-09-03 18:45:48.0870,-0.85,-0.04,0.09,0.85
2021-09-03 18:45:48.1020,-0.57,0.09,-0.29,0.64
2021-09-03 18:45:48.1070,-0.39,-0.08,-0.47,0.61
2021-09-03 18:45:48.1170,-0.46,-0.09,-0.71,0.85
2021-09-03 18:45:48.1270,-0.37,-0.02,-0.8,0.88
2021-09-03 18:45:48.1370,-0.28,-0.06,-0.65,0.71
2021-09-03 18:45:48.1470,-0.42,-0.16,-0.45,0.63
2021-09-03 18:45:48.1560,-0.64,0.04,-0.44,0.77
2021-09-03 18:45:48.1670,-0.46,0.12,-0.31,0.56
2021-09-03 18:45:48.1770,-0.13,-0.05,0.21,0.25
2021-09-03 18:45:48.1870,-0.33,-0.06,0.61,0.69
2021-09-03 18:45:48.2030,-0.79,0.32,0.62,1.05
2021-09-03 18:45:48.2070,-0.75,0.67,0.44,1.09
2021-09-03 18:45:48.2170,-0.37,0.58,0.3,0.75
2021-09-03 18:45:48.2260,-0.35,0.14,0.3,0.48
2021-09-03 18:45:48.2360,-0.55,-0.27,0.31,0.68
2021-09-03 18:45:48.2460,-0.49,-0.11,-0.05,0.5
2021-09-03 18:45:48.2560,-0.25,0.47,-0.27,0.59
2021-09-03 18:45:48.2660,-0.16,0.25,-0.01,0.29
2021-09-03 18:45:48.2760,-0.68,-0.33,-0.16,0.77
2021-09-03 18:45:48.2860,-0.89,-0.46,-0.4,1.07
2021-09-03 18:45:48.3010,-0.86,-0.41,-0.32,1.0
2021-09-03 18:45:48.3060,-1.14,-0.63,-0.07,1.3
2021-09-03 18:45:48.3160,-1.35,-0.85,0.35,1.63
2021-09-03 18:45:48.3260,-1.19,-0.91,0.74,1.67
2021-09-03 18:45:48.3360,-0.61,-0.63,1.08,1.39
2021-09-03 18:45:48.3460,-0.41,-0.46,1.53,1.64
2021-09-03 18:45:48.3560,-0.8,-1.11,1.48,2.01
2021-09-03 18:45:48.3660,-0.92,-1.82,0.61,2.12
2021-09-03 18:45:48.3760,-0.76,-2.0,-0.11,2.14
2021-09-03 18:45:48.3860,-0.74,-2.09,-0.71,2.32
2021-09-03 18:45:48.4010,-0.42,-2.57,-1.49,3.0
2021-09-03 18:45:48.4060,-0.01,-3.17,-2.18,3.84
2021-09-03 18:45:48.4160,0.32,-3.52,-2.44,4.29
2021-09-03 18:45:48.4260,0.39,-3.39,-2.04,3.97
2021-09-03 18:45:48.4360,0.11,-2.82,-1.18,3.05
2021-09-03 18:45:48.4460,-0.36,-2.35,-0.2,2.38
2021-09-03 18:45:48.4560,-0.79,-1.87,0.17,2.03
2021-09-03 18:45:48.4660,-0.14,-1.19,-0.29,1.23
2021-09-03 18:45:48.4750,1.12,-0.73,-0.86,1.58
2021-09-03 18:45:48.4860,1.73,-0.8,-1.23,2.26
2021-09-03 18:45:48.5010,1.91,-0.99,-1.33,2.52
2021-09-03 18:45:48.5050,0.96,-0.98,-2.04,2.45
2021-09-03 18:45:48.5160,-1.83,0.27,-2.97,3.49
2021-09-03 18:45:48.5250,-2.97,0.9,-3.09,4.37
2021-09-03 18:45:48.5350,-1.69,0.35,-2.82,3.3
2021-09-03 18:45:48.5450,0.48,0.2,-3.12,3.16
2021-09-03 18:45:48.5560,1.01,1.27,-3.77,4.1
2021-09-03 18:45:48.5650,0.42,1.99,-3.53,4.07
2021-09-03 18:45:48.5750,0.49,0.92,-3.18,3.34
2021-09-03 18:45:48.5850,0.43,1.29,-3.38,3.64
2021-09-03 18:45:48.6010,-1.05,2.42,-3.84,4.65
2021-09-03 18:45:48.6050,-2.35,2.31,-4.1,5.26
2021-09-03 18:45:48.6150,-2.64,2.09,-3.92,5.16
2021-09-03 18:45:48.6250,-2.46,2.17,-3.48,4.78
2021-09-03 18:45:48.6350,-2.42,2.26,-3.06,4.5
2021-09-03 18:45:48.6450,-2.25,2.22,-2.73,4.17
2021-09-03 18:45:48.6550,-2.14,2.05,-2.15,3.66
2021-09-03 18:45:48.6650,-2.07,2.34,-2.21,3.82
2021-09-03 18:45:48.6750,-0.76,1.57,-2.05,2.69
2021-09-03 18:45:48.6850,-0.28,0.87,-1.87,2.08
2021-09-03 18:45:48.7010,-1.32,1.13,-1.82,2.51
2021-09-03 18:45:48.7050,-2.13,0.89,-0.99,2.51
2021-09-03 18:45:48.7150,-1.9,0.88,-0.34,2.12
2021-09-03 18:45:48.7250,-1.82,0.88,-0.03,2.02
2021-09-03 18:45:48.7350,-2.12,0.51,0.22,2.19
2021-09-03 18:45:48.7450,-2.29,0.26,0.53,2.36
2021-09-03 18:45:48.7550,-2.18,-0.03,0.81,2.32
2021-09-03 18:45:48.7650,-2.01,-0.06,0.82,2.17
2021-09-03 18:45:48.7750,-1.87,0.13,0.94,2.09
2021-09-03 18:45:48.7850,-1.88,0.15,1.03,2.14
2021-09-03 18:45:48.8030,-1.72,0.15,1.1,2.04
2021-09-03 18:45:48.8060,-1.49,0.1,1.3,1.97
2021-09-03 18:45:48.8140,-1.49,0.06,1.7,2.26
2021-09-03 18:45:48.8240,-1.74,0.09,2.2,2.8
2021-09-03 18:45:48.8350,-1.98,0.13,2.65,3.31
2021-09-03 18:45:48.8440,-1.85,0.15,2.73,3.3
2021-09-03 18:45:48.8550,-1.18,-0.11,2.7,2.94
2021-09-03 18:45:48.8650,-0.41,-0.24,2.83,2.86
2021-09-03 18:45:48.8740,0.23,-0.25,3.12,3.13
2021-09-03 18:45:48.8850,1.02,-0.33,3.43,3.59
2021-09-03 18:45:48.9030,1.97,-0.3,3.62,4.13
2021-09-03 18:45:48.9060,2.91,-0.39,3.75,4.76
2021-09-03 18:45:48.9140,3.71,-0.88,3.9,5.45
2021-09-03 18:45:48.9240,4.46,-1.42,4.16,6.26
2021-09-03 18:45:48.9340,5.4,-1.74,4.78,7.41
2021-09-03 18:45:48.9440,7.18,-2.21,5.64,9.39
2021-09-03 18:45:48.9540,12.68,-4.41,6.66,14.98
2021-09-03 18:45:48.9640,15.59,-3.54,4.34,16.56
2021-09-03 18:45:48.9740,9.7,-0.36,2.47,10.01
2021-09-03 18:45:48.9850,0.25,-5.22,1.2,5.36
2021-09-03 18:45:49.0030,-6.67,-9.63,-2.0,11.88
2021-09-03 18:45:49.0060,-5.1,-7.53,-2.36,9.39
2021-09-03 18:45:49.0140,-0.66,-3.46,0.25,3.53
2021-09-03 18:45:49.0240,3.19,-1.54,-0.12,3.54
2021-09-03 18:45:49.0340,5.48,-1.26,-2.15,6.02
2021-09-03 18:45:49.0440,6.3,-1.87,-2.92,7.19
2021-09-03 18:45:49.0540,6.5,-1.74,-2.27,7.1
2021-09-03 18:45:49.0640,5.52,-1.18,-0.43,5.66
2021-09-03 18:45:49.0740,3.03,-0.97,0.8,3.28
2021-09-03 18:45:49.0850,0.66,-0.5,1.31,1.54
2021-09-03 18:45:49.1020,-0.37,0.5,1.41,1.54
2021-09-03 18:45:49.1060,-0.46,1.01,1.36,1.75
2021-09-03 18:45:49.1140,-0.28,0.77,1.17,1.42
2021-09-03 18:45:49.1240,-0.11,0.65,1.01,1.2
2021-09-03 18:45:49.1340,-0.18,0.77,0.97,1.25
2021-09-03 18:45:49.1440,-0.14,0.61,1.13,1.29
2021-09-03 18:45:49.1540,0.12,0.1,1.15,1.16
2021-09-03 18:45:49.1640,0.41,-0.48,0.7,0.94
2021-09-03 18:45:49.1740,0.7,-0.94,0.17,1.18
2021-09-03 18:45:49.1840,1.04,-0.92,-0.19,1.4
2021-09-03 18:45:49.2030,0.87,-0.94,-0.06,1.28
2021-09-03 18:45:49.2060,0.35,-1.01,0.23,1.09
2021-09-03 18:45:49.2130,0.1,-0.54,0.54,0.77
2021-09-03 18:45:49.2240,-0.21,-0.02,0.87,0.89
2021-09-03 18:45:49.2340,-0.33,0.04,1.21,1.25
2021-09-03 18:45:49.2440,-0.03,0.15,1.45,1.45
2021-09-03 18:45:49.2530,0.3,0.26,1.58,1.62
2021-09-03 18:45:49.2640,0.2,0.03,1.74,1.75
2021-09-03 18:45:49.2740,0.12,-0.37,1.9,1.93
2021-09-03 18:45:49.2840,0.3,-0.52,1.94,2.03
2021-09-03 18:45:49.3020,0.35,-0.66,1.41,1.59
2021-09-03 18:45:49.3050,0.37,-0.74,0.74,1.11
2021-09-03 18:45:49.3130,0.42,-0.52,0.06,0.67
2021-09-03 18:45:49.3230,0.29,-0.28,-0.35,0.53
2021-09-03 18:45:49.3330,-0.01,-0.33,-0.36,0.48
2021-09-03 18:45:49.3430,0.07,-0.43,-0.24,0.49
2021-09-03 18:45:49.3530,0.18,-0.19,-0.27,0.37
2021-09-03 18:45:49.3630,0.15,-0.13,-0.25,0.31
2021-09-03 18:45:49.3730,0.27,-0.3,0.03,0.4
2021-09-03 18:45:49.3840,0.12,-0.36,-0.04,0.38
2021-09-03 18:45:49.4010,-0.24,-0.18,-0.72,0.77
2021-09-03 18:45:49.4050,-0.58,-0.09,-1.18,1.31
2021-09-03 18:45:49.4130,-0.57,0.09,-1.12,1.25
2021-09-03 18:45:49.4230,-0.29,0.19,-0.89,0.95
2021-09-03 18:45:49.4330,-0.38,0.01,-0.82,0.9
2021-09-03 18:45:49.4430,-0.52,0.04,-0.67,0.84
2021-09-03 18:45:49.4530,-0.4,0.18,-0.43,0.61
2021-09-03 18:45:49.4630,0.01,0.06,-0.19,0.19
2021-09-03 18:45:49.4730,0.48,-0.08,-0.04,0.48
2021-09-03 18:45:49.4830,0.63,0.03,0.01,0.63
2021-09-03 18:45:49.5010,-0.03,0.03,0.12,0.12
2021-09-03 18:45:49.5040,-0.52,0.02,0.13,0.53
2021-09-03 18:45:49.5130,-0.44,0.0,0.14,0.46
2021-09-03 18:45:49.5230,0.01,0.1,-0.01,0.1
2021-09-03 18:45:49.5330,0.61,0.25,-0.15,0.67
2021-09-03 18:45:49.5420,0.66,0.27,-0.02,0.71
2021-09-03 18:45:49.5530,0.14,0.07,0.26,0.3
2021-09-03 18:45:49.5630,-0.27,-0.1,0.49,0.56
2021-09-03 18:45:49.5730,-0.19,-0.07,0.72,0.74
2021-09-03 18:45:49.5830,-0.29,-0.09,0.62,0.69
2021-09-03 18:45:49.5990,-0.22,0.02,0.38,0.43
2021-09-03 18:45:49.6020,-0.29,0.03,0.32,0.43
2021-09-03 18:45:49.6120,-0.69,-0.12,0.33,0.77
2021-09-03 18:45:49.6220,-0.78,0.01,0.2,0.8
2021-09-03 18:45:49.6320,-0.12,0.39,-0.13,0.42
2021-09-03 18:45:49.6420,0.52,0.39,-0.27,0.7
2021-09-03 18:45:49.6520,0.13,-0.06,-0.2,0.24
2021-09-03 18:45:49.6630,-0.54,-0.29,-0.13,0.62
2021-09-03 18:45:49.6730,-0.37,0.07,-0.35,0.51
2021-09-03 18:45:49.6830,0.28,0.45,-0.25,0.58
2021-09-03 18:45:49.7010,0.43,0.2,0.09,0.48
2021-09-03 18:45:49.7040,0.14,-0.16,0.54,0.58
2021-09-03 18:45:49.7120,-0.1,-0.11,0.72,0.73
2021-09-03 18:45:49.7220,-0.01,0.04,0.44,0.44
2021-09-03 18:45:49.7320,0.44,0.13,0.46,0.64
2021-09-03 18:45:49.7420,0.47,-0.06,0.41,0.62
2021-09-03 18:45:49.7520,-0.32,-0.43,0.29,0.6
2021-09-03 18:45:49.7620,-0.81,-0.35,0.39,0.96
2021-09-03 18:45:49.7720,-0.61,-0.05,0.53,0.8
2021-09-03 18:45:49.7830,-0.06,0.03,0.66,0.66
2021-09-03 18:45:49.8000,0.4,-0.09,0.8,0.89
2021-09-03 18:45:49.8040,0.46,-0.06,0.76,0.89
2021-09-03 18:45:49.8120,0.45,0.14,0.3,0.55
2021-09-03 18:45:49.8220,0.81,0.26,-0.3,0.9
2021-09-03 18:45:49.8320,0.9,0.0,-0.41,0.98
2021-09-03 18:45:49.8420,0.45,-0.31,-0.19,0.57
2021-09-03 18:45:49.8520,-0.11,-0.28,0.1,0.31
2021-09-03 18:45:49.8620,-0.4,0.03,0.33,0.51
2021-09-03 18:45:49.8720,-0.36,0.12,0.52,0.64
2021-09-03 18:45:49.8820,-0.04,0.06,0.8,0.8
2021-09-03 18:45:49.9000,0.22,0.02,0.93,0.95
2021-09-03 18:45:49.9030,0.19,0.01,0.98,0.99
2021-09-03 18:45:49.9120,0.02,0.03,0.91,0.91
2021-09-03 18:45:49.9220,0.0,0.0,0.85,0.85
2021-09-03 18:45:49.9320,0.31,-0.08,0.58,0.66
2021-09-03 18:45:49.9410,0.43,-0.04,0.14,0.45
2021-09-03 18:45:49.9520,0.48,0.09,-0.11,0.5
2021-09-03 18:45:49.9610,0.46,0.07,-0.14,0.48
2021-09-03 18:45:49.9720,0.43,0.04,-0.07,0.43
2021-09-03 18:45:49.9820,0.42,0.11,-0.12,0.45
2021-09-03 18:45:49.9990,0.48,0.19,-0.2,0.55
2021-09-03 18:45:50.0020,0.51,0.18,-0.3,0.61
2021-09-03 18:45:50.0110,0.31,0.07,-0.39,0.5
2021-09-03 18:45:50.0210,0.0,0.01,-0.46,0.46
2021-09-03 18:45:50.0310,-0.18,0.01,-0.64,0.66
2021-09-03 18:45:50.0410,-0.17,0.04,-0.69,0.71
2021-09-03 18:45:50.0510,-0.22,-0.01,-0.63,0.66
2021-09-03 18:45:50.0610,-0.22,-0.16,-0.44,0.51
2021-09-03 18:45:50.0710,-0.19,-0.11,-0.35,0.41
2021-09-03 18:45:50.0810,-0.34,0.15,-0.31,0.48
2021-09-03 18:45:50.0990,-0.56,0.19,-0.27,0.65
2021-09-03 18:45:50.1030,-0.69,-0.26,-0.07,0.74
2021-09-03 18:45:50.1110,-0.51,-0.67,0.23,0.87
2021-09-03 18:45:50.1210,0.04,-0.16,0.43,0.46
2021-09-03 18:45:50.1310,0.74,0.61,0.28,0.99
2021-09-03 18:45:50.1410,1.17,0.68,-0.16,1.36
2021-09-03 18:45:50.1510,0.96,0.01,-0.51,1.08
2021-09-03 18:45:50.1610,0.28,-0.39,-0.6,0.76
2021-09-03 18:45:50.1710,0.05,-0.18,-0.35,0.39
2021-09-03 18:45:50.1810,0.28,0.16,0.09,0.33
2021-09-03 18:45:50.1980,0.41,0.21,0.28,0.53
2021-09-03 18:45:50.2010,0.36,0.12,0.14,0.4
2021-09-03 18:45:50.2110,0.19,-0.04,-0.05,0.2
2021-09-03 18:45:50.2210,-0.05,-0.15,-0.08,0.17
2021-09-03 18:45:50.2310,-0.08,-0.01,-0.03,0.08
2021-09-03 18:45:50.2400,0.15,0.08,0.1,0.19
2021-09-03 18:45:50.2510,0.18,0.0,0.23,0.29
2021-09-03 18:45:50.2610,0.18,0.02,0.11,0.21
2021-09-03 18:45:50.2710,0.11,-0.02,0.05,0.12
2021-09-03 18:45:50.2810,-0.08,-0.17,0.08,0.2
2021-09-03 18:45:50.2970,-0.15,-0.15,0.11,0.23
2021-09-03 18:45:50.3010,-0.03,0.1,0.12,0.15
2021-09-03 18:45:50.3100,0.19,0.1,0.16,0.26
2021-09-03 18:45:50.3200,0.12,0.0,0.27,0.29
2021-09-03 18:45:50.3300,-0.01,0.06,0.19,0.19
2021-09-03 18:45:50.3400,0.08,-0.01,0.14,0.16
2021-09-03 18:45:50.3500,0.09,-0.14,0.09,0.18
2021-09-03 18:45:50.3610,0.08,-0.09,0.02,0.12
2021-09-03 18:45:50.3700,0.14,-0.01,0.02,0.14
2021-09-03 18:45:50.3810,0.12,-0.06,-0.01,0.13
2021-09-03 18:45:50.3980,0.14,-0.08,-0.05,0.16
2021-09-03 18:45:50.4020,0.24,0.08,-0.12,0.27
2021-09-03 18:45:50.4100,0.28,0.11,-0.13,0.32
2021-09-03 18:45:50.4200,0.21,-0.02,-0.11,0.23
2021-09-03 18:45:50.4300,0.08,-0.07,0.0,0.1
2021-09-03 18:45:50.4400,-0.11,0.04,0.01,0.11
2021-09-03 18:45:50.4500,-0.09,0.06,-0.06,0.12
2021-09-03 18:45:50.4600,0.05,-0.04,-0.08,0.1
2021-09-03 18:45:50.4700,0.12,-0.04,-0.05,0.13
2021-09-03 18:45:50.4800,-0.03,0.05,-0.09,0.1
2021-09-03 18:45:50.4970,-0.08,0.06,-0.14,0.17
2021-09-03 18:45:50.5000,0.03,0.02,-0.17,0.17
2021-09-03 18:45:50.5100,0.13,0.0,-0.16,0.2
2021-09-03 18:45:50.5200,0.18,0.0,-0.18,0.25
2021-09-03 18:45:50.5300,0.01,-0.04,-0.18,0.18
2021-09-03 18:45:50.5400,-0.19,-0.08,-0.11,0.23
2021-09-03 18:45:50.5500,-0.33,-0.04,-0.08,0.34
2021-09-03 18:45:50.5600,-0.21,0.08,-0.13,0.25
2021-09-03 18:45:50.5700,0.09,0.05,-0.16,0.19
2021-09-03 18:45:50.5800,0.34,-0.02,-0.17,0.38
2021-09-03 18:45:50.5980,0.19,-0.04,-0.02,0.19
2021-09-03 18:45:50.6010,-0.14,-0.02,0.11,0.17
2021-09-03 18:45:50.6090,-0.17,-0.05,0.23,0.29
2021-09-03 18:45:50.6200,-0.07,-0.06,0.32,0.33
2021-09-03 18:45:50.6300,-0.03,0.01,0.32,0.32
2021-09-03 18:45:50.6390,0.12,0.12,0.18,0.24
2021-09-03 18:45:50.6500,0.37,0.03,0.19,0.41
2021-09-03 18:45:50.6590,0.29,-0.04,0.29,0.41
2021-09-03 18:45:50.6700,0.11,-0.01,0.26,0.28
2021-09-03 18:45:50.6800,0.18,0.09,0.15,0.25
2021-09-03 18:45:50.6960,0.34,0.06,0.08,0.35
2021-09-03 18:45:50.7000,0.27,-0.04,0.18,0.32
2021-09-03 18:45:50.7090,-0.06,0.03,0.21,0.22
2021-09-03 18:45:50.7190,-0.07,0.05,0.24,0.25
2021-09-03 18:45:50.7290,0.01,0.03,0.25,0.25
2021-09-03 18:45:50.7390,0.08,0.04,0.22,0.23
2021-09-03 18:45:50.7490,0.19,-0.01,0.17,0.25
2021-09-03 18:45:50.7590,0.09,0.01,0.14,0.16
2021-09-03 18:45:50.7700,0.03,-0.02,0.06,0.06
2021-09-03 18:45:50.7790,0.1,-0.03,-0.04,0.11
2021-09-03 18:45:50.7970,0.16,-0.01,-0.09,0.18
2021-09-03 18:45:50.8000,0.08,-0.01,-0.04,0.09
2021-09-03 18:45:50.8090,-0.15,-0.01,0.01,0.15
2021-09-03 18:45:50.8190,-0.21,-0.01,-0.01,0.21
2021-09-03 18:45:50.8290,-0.1,0.01,0.0,0.1
2021-09-03 18:45:50.8390,-0.05,-0.01,0.04,0.06
2021-09-03 18:45:50.8490,0.04,-0.02,0.02,0.04
2021-09-03 18:45:50.8590,0.11,0.03,0.0,0.11
2021-09-03 18:45:50.8690,0.03,0.01,-0.01,0.03
2021-09-03 18:45:50.8790,0.0,-0.01,-0.03,0.03
2021-09-03 18:45:50.8960,0.07,0.0,0.04,0.08
2021-09-03 18:45:50.8990,0.49,1.14,-0.02,1.24
2021-09-03 18:45:50.9090,0.33,2.42,0.37,2.47
2021-09-03 18:45:50.9190,-1.4,-1.84,-1.55,2.78
2021-09-03 18:45:50.9290,-2.18,-4.32,-2.15,5.29
2021-09-03 18:45:50.9390,-3.12,-1.93,0.23,3.67
2021-09-03 18:45:50.9490,0.78,1.91,0.76,2.19
2021-09-03 18:45:50.9590,6.12,4.17,0.85,7.45
2021-09-03 18:45:50.9690,3.49,0.86,0.56,3.63
2021-09-03 18:45:50.9790,-2.82,-2.78,-0.19,3.96
2021-09-03 18:45:50.9980,-3.53,-0.9,-0.08,3.64
2021-09-03 18:45:51.0010,-0.36,1.51,0.74,1.71
2021-09-03 18:45:51.0080,1.54,0.42,0.65,1.72
2021-09-03 18:45:51.0180,1.17,-0.97,-0.15,1.52
2021-09-03 18:45:51.0280,-0.8,-0.2,-0.05,0.82
2021-09-03 18:45:51.0380,-1.42,0.77,0.31,1.64
2021-09-03 18:45:51.0480,-0.3,0.14,-0.11,0.34
2021-09-03 18:45:51.0590,0.93,-0.88,-0.67,1.44
2021-09-03 18:45:51.0690,1.19,-0.21,-0.71,1.4
2021-09-03 18:45:51.0790,0.65,0.61,-0.21,0.91
2021-09-03 18:45:51.0950,-0.06,0.16,0.24,0.29
2021-09-03 18:45:51.0990,-0.31,-0.28,0.57,0.7
2021-09-03 18:45:51.1080,-0.15,-0.01,0.56,0.57
2021-09-03 18:45:51.1180,0.13,0.26,0.31,0.42
2021-09-03 18:45:51.1280,0.25,0.13,0.01,0.28
2021-09-03 18:45:51.1380,0.21,-0.01,-0.21,0.29
2021-09-03 18:45:51.1480,0.08,-0.02,-0.29,0.3
2021-09-03 18:45:51.1580,-0.02,-0.13,-0.22,0.25
2021-09-03 18:45:51.1680,0.09,-0.17,-0.04,0.19
2021-09-03 18:45:51.1780,0.14,0.02,0.05,0.15
2021-09-03 18:45:51.1940,0.13,0.14,0.0,0.19
2021-09-03 18:45:51.1980,0.19,0.06,-0.1,0.22
2021-09-03 18:45:51.2080,0.35,0.0,-0.13,0.37
2021-09-03 18:45:51.2180,0.25,0.02,0.02,0.25
2021-09-03 18:45:51.2280,0.06,-0.03,0.13,0.14
2021-09-03 18:45:51.2380,0.0,-0.05,0.12,0.13
2021-09-03 18:45:51.2480,0.15,0.04,0.04,0.16
2021-09-03 18:45:51.2580,0.36,0.08,-0.01,0.36
2021-09-03 18:45:51.2680,0.41,-0.01,-0.04,0.41
2021-09-03 18:45:51.2780,0.24,-0.02,0.01,0.24
2021-09-03 18:45:51.2940,0.03,-0.03,0.12,0.12
2021-09-03 18:45:51.2980,-0.08,0.03,0.14,0.16
2021-09-03 18:45:51.3080,-0.01,0.03,0.19,0.19
2021-09-03 18:45:51.3180,0.1,-0.01,0.17,0.19
2021-09-03 18:45:51.3280,0.25,0.03,0.15,0.29
2021-09-03 18:45:51.3370,0.22,0.09,0.16,0.28
2021-09-03 18:45:51.3480,-0.04,0.07,0.19,0.2
2021-09-03 18:45:51.3580,-0.08,0.03,0.11,0.13
2021-09-03 18:45:51.3680,0.13,0.06,0.06,0.15
2021-09-03 18:45:51.3780,0.17,0.03,0.08,0.19
2021-09-03 18:45:51.3930,0.12,-0.08,0.1,0.17
2021-09-03 18:45:51.3970,0.02,-0.03,0.0,0.03
2021-09-03 18:45:51.4070,0.02,0.03,-0.11,0.11
2021-09-03 18:45:51.4170,0.02,-0.04,-0.07,0.08
2021-09-03 18:45:51.4270,0.04,-0.05,-0.03,0.07
2021-09-03 18:45:51.4370,0.04,0.04,0.02,0.06
2021-09-03 18:45:51.4480,-0.11,0.05,0.0,0.12
2021-09-03 18:45:51.4570,-0.09,-0.04,-0.08,0.12
2021-09-03 18:45:51.4680,-0.01,-0.01,-0.11,0.11
2021-09-03 18:45:51.4770,0.02,-0.04,-0.08,0.09
2021-09-03 18:45:51.4930,0.0,-0.05,-0.01,0.05
2021-09-03 18:45:51.4970,-0.16,0.05,0.04,0.17
2021-09-03 18:45:51.5070,-0.16,-0.01,0.06,0.17
2021-09-03 18:45:51.5170,-0.01,-0.01,0.03,0.03
2021-09-03 18:45:51.5270,0.09,0.01,-0.01,0.09
2021-09-03 18:45:51.5370,-0.02,-0.01,-0.03,0.03
2021-09-03 18:45:51.5470,-0.15,0.02,-0.04,0.15
2021-09-03 18:45:51.5570,0.06,0.05,-0.02,0.08
2021-09-03 18:45:51.5670,0.12,0.04,0.03,0.13
2021-09-03 18:45:51.5770,0.01,-0.08,0.1,0.12
2021-09-03 18:45:51.5930,-0.06,-0.03,0.11,0.12
2021-09-03 18:45:51.5970,-0.07,0.03,0.02,0.07
2021-09-03 18:45:51.6070,-0.02,0.01,0.01,0.02
2021-09-03 18:45:51.6170,-0.08,-0.02,0.03,0.08
2021-09-03 18:45:51.6270,-0.04,-0.02,-0.01,0.04
2021-09-03 18:45:51.6370,-0.09,0.02,-0.03,0.09
2021-09-03 18:45:51.6470,-0.13,0.0,-0.07,0.14
2021-09-03 18:45:51.6570,-0.01,-0.01,-0.06,0.06
2021-09-03 18:45:51.6670,-0.02,-0.01,-0.03,0.03
2021-09-03 18:45:51.6770,-0.04,0.0,-0.04,0.05
2021-09-03 18:45:51.6930,0.04,0.01,-0.05,0.06
2021-09-03 18:45:51.6960,-0.07,0.0,0.06,0.09
2021-09-03 18:45:51.7060,-0.21,0.0,0.13,0.24
2021-09-03 18:45:51.7160,-0.05,0.01,0.05,0.07
2021-09-03 18:45:51.7260,0.05,0.05,0.01,0.07
2021-09-03 18:45:51.7370,0.07,-0.01,0.03,0.07
2021-09-03 18:45:51.7460,0.01,-0.01,-0.03,0.03
2021-09-03 18:45:51.7570,-0.05,0.0,-0.01,0.05
2021-09-03 18:45:51.7670,-0.09,0.02,0.01,0.09
2021-09-03 18:45:51.7770,-0.03,0.03,-0.04,0.05
2021-09-03 18:45:51.7920,0.05,0.0,-0.06,0.07
2021-09-03 18:45:51.7960,0.08,-0.04,0.01,0.09
2021-09-03 18:45:51.8060,-0.04,-0.02,0.03,0.05
2021-09-03 18:45:51.8160,-0.05,0.04,0.01,0.06
2021-09-03 18:45:51.8260,0.06,0.03,-0.04,0.07
2021-09-03 18:45:51.8360,0.15,0.04,-0.1,0.18
2021-09-03 18:45:51.8460,0.09,0.06,-0.13,0.16
2021-09-03 18:45:51.8560,-0.07,-0.03,-0.12,0.14
2021-09-03 18:45:51.8660,-0.15,-0.09,-0.05,0.18
2021-09-03 18:45:51.8760,-0.17,-0.02,-0.03,0.17
2021-09-03 18:45:51.8910,-0.15,0.0,-0.07,0.16
2021-09-03 18:45:51.8960,0.04,-0.01,-0.13,0.13
2021-09-03 18:45:51.9060,0.13,-0.02,-0.09,0.15
2021-09-03 18:45:51.9160,-0.02,-0.05,-0.02,0.05
2021-09-03 18:45:51.9260,-0.18,-0.03,0.03,0.18
2021-09-03 18:45:51.9360,-0.11,0.04,0.05,0.12
2021-09-03 18:45:51.9460,-0.02,0.06,-0.05,0.08
2021-09-03 18:45:51.9560,0.04,0.03,-0.18,0.18
2021-09-03 18:45:51.9660,0.03,0.05,-0.16,0.17
2021-09-03 18:45:51.9760,-0.03,0.03,-0.08,0.09
2021-09-03 18:45:51.9930,-0.03,0.01,0.0,0.03
2021-09-03 18:45:51.9960,0.05,0.07,0.04,0.09
2021-09-03 18:45:52.0060,0.16,0.08,0.01,0.17
2021-09-03 18:45:52.0160,0.26,0.08,-0.01,0.27
2021-09-03 18:45:52.0250,0.17,0.03,0.04,0.17
2021-09-03 18:45:52.0360,0.06,-0.03,0.1,0.12
2021-09-03 18:45:52.0460,0.02,0.02,0.07,0.07
2021-09-03 18:45:52.0560,0.13,0.0,0.03,0.13
2021-09-03 18:45:52.0660,0.23,-0.01,0.01,0.23
2021-09-03 18:45:52.0760,0.12,-0.06,0.05,0.14
2021-09-03 18:45:52.0930,-0.07,-0.1,0.06,0.13
2021-09-03 18:45:52.0960,-0.06,-0.03,0.06,0.09
2021-09-03 18:45:52.1050,0.03,0.0,0.03,0.04
2021-09-03 18:45:52.1150,0.09,-0.02,-0.04,0.1
2021-09-03 18:45:52.1250,0.08,0.01,-0.01,0.08
2021-09-03 18:45:52.1350,-0.05,-0.03,0.01,0.05
2021-09-03 18:45:52.1450,-0.11,0.01,0.04,0.11
2021-09-03 18:45:52.1560,-0.06,0.04,-0.01,0.07
2021-09-03 18:45:52.1660,0.02,0.07,-0.15,0.16
2021-09-03 18:45:52.1760,0.06,0.08,-0.27,0.28
2021-09-03 18:45:52.1930,-0.04,-0.01,-0.2,0.2
2021-09-03 18:45:52.1960,-0.11,-0.05,-0.11,0.16
2021-09-03 18:45:52.2050,0.05,0.02,-0.07,0.08
2021-09-03 18:45:52.2150,0.16,0.05,0.02,0.16
2021-09-03 18:45:52.2250,0.14,0.04,0.14,0.2
2021-09-03 18:45:52.2350,0.06,0.05,0.18,0.19
2021-09-03 18:45:52.2450,0.04,0.04,0.15,0.16
2021-09-03 18:45:52.2550,0.05,0.0,0.06,0.07
2021-09-03 18:45:52.2650,0.14,0.03,0.02,0.14
2021-09-03 18:45:52.2750,0.14,0.01,-0.01,0.14
2021-09-03 18:45:52.2920,0.18,-0.04,-0.01,0.18
2021-09-03 18:45:52.2960,0.17,-0.02,-0.01,0.17
2021-09-03 18:45:52.3050,0.09,0.01,-0.06,0.1
2021-09-03 18:45:52.3150,0.04,0.02,-0.08,0.09
2021-09-03 18:45:52.3250,0.05,0.02,-0.11,0.12
2021-09-03 18:45:52.3350,0.04,-0.02,-0.05,0.06
2021-09-03 18:45:52.3450,0.04,-0.07,0.11,0.13
2021-09-03 18:45:52.3550,-0.08,0.02,0.22,0.23
2021-09-03 18:45:52.3650,-0.13,0.06,0.08,0.16
2021-09-03 18:45:52.3750,-0.02,0.04,0.0,0.04
2021-09-03 18:45:52.3920,-0.03,0.04,-0.02,0.05
2021-09-03 18:45:52.3960,0.04,0.05,0.02,0.06
2021-09-03 18:45:52.4050,0.01,0.03,0.03,0.04
2021-09-03 18:45:52.4140,-0.06,-0.01,-0.01,0.06
2021-09-03 18:45:52.4240,0.04,-0.02,0.0,0.04
2021-09-03 18:45:52.4350,0.03,-0.05,0.08,0.09
2021-09-03 18:45:52.4440,-0.01,-0.03,0.14,0.14
2021-09-03 18:45:52.4550,-0.05,0.03,0.11,0.12
2021-09-03 18:45:52.4640,-0.1,0.0,0.08,0.12
2021-09-03 18:45:52.4740,0.0,-0.06,0.05,0.07
2021-09-03 18:45:52.4900,0.05,-0.03,0.06,0.08
2021-09-03 18:45:52.4940,0.03,-0.04,0.05,0.07
2021-09-03 18:45:52.5040,0.13,-0.03,0.03,0.13
2021-09-03 18:45:52.5140,0.09,-0.05,0.05,0.11
2021-09-03 18:45:52.5240,-0.16,-0.05,-0.01,0.16
2021-09-03 18:45:52.5340,-0.37,0.04,-0.12,0.39
2021-09-03 18:45:52.5440,-0.38,0.1,-0.24,0.46
2021-09-03 18:45:52.5550,-0.18,0.04,-0.28,0.33
2021-09-03 18:45:52.5650,0.06,0.05,-0.27,0.28
2021-09-03 18:45:52.5740,0.11,0.05,-0.24,0.26
2021-09-03 18:45:52.5900,-0.07,-0.01,-0.2,0.21
2021-09-03 18:45:52.5940,-0.29,-0.01,-0.18,0.34
2021-09-03 18:45:52.6040,-0.28,0.05,-0.22,0.35
2021-09-03 18:45:52.6140,-0.16,0.02,-0.26,0.3
2021-09-03 18:45:52.6240,-0.11,0.0,-0.31,0.32
2021-09-03 18:45:52.6340,-0.2,0.05,-0.34,0.39
2021-09-03 18:45:52.6440,-0.34,0.07,-0.47,0.58
2021-09-03 18:45:52.6540,-0.19,-0.07,-0.45,0.49
2021-09-03 18:45:52.6640,-0.06,-0.09,-0.24,0.26
2021-09-03 18:45:52.6740,-0.12,-0.02,-0.11,0.16
2021-09-03 18:45:52.6920,-0.21,0.11,-0.11,0.26
2021-09-03 18:45:52.6960,-0.23,0.14,-0.16,0.31
2021-09-03 18:45:52.7040,-0.01,-0.01,-0.14,0.14
2021-09-03 18:45:52.7140,0.11,-0.08,-0.02,0.13
2021-09-03 18:45:52.7240,-0.09,-0.01,0.0,0.09
2021-09-03 18:45:52.7340,-0.23,0.1,-0.06,0.25
2021-09-03 18:45:52.7440,-0.1,0.0,0.02,0.1
2021-09-03 18:45:52.7540,0.01,-0.03,0.1,0.1
2021-09-03 18:45:52.7640,0.06,-0.02,0.08,0.1
2021-09-03 18:45:52.7740,0.01,0.11,0.02,0.11
2021-09-03 18:45:52.7910,-0.05,0.18,-0.04,0.19
2021-09-03 18:45:52.7950,0.0,0.11,-0.01,0.11
2021-09-03 18:45:52.8030,-0.01,0.02,0.13,0.13
2021-09-03 18:45:52.8140,-0.13,-0.01,0.24,0.27
2021-09-03 18:45:52.8230,-0.12,0.05,0.2,0.23
2021-09-03 18:45:52.8330,-0.07,0.03,0.14,0.15
2021-09-03 18:45:52.8430,-0.09,0.03,0.14,0.16
2021-09-03 18:45:52.8540,-0.21,-0.03,0.17,0.27
2021-09-03 18:45:52.8640,-0.13,-0.11,0.11,0.2
2021-09-03 18:45:52.8740,-0.09,0.04,-0.1,0.14
2021-09-03 18:45:52.8910,0.02,0.01,-0.3,0.3
2021-09-03 18:45:52.8950,0.05,-0.11,-0.38,0.39
2021-09-03 18:45:52.9030,-0.02,-0.14,-0.24,0.27
2021-09-03 18:45:52.9130,-0.02,-0.02,-0.08,0.08
2021-09-03 18:45:52.9230,0.06,0.08,0.03,0.1
2021-09-03 18:45:52.9330,0.06,0.0,0.11,0.12
2021-09-03 18:45:52.9430,0.01,0.0,0.14,0.14
2021-09-03 18:45:52.9530,0.04,0.04,0.16,0.16
2021-09-03 18:45:52.9630,0.29,0.01,0.17,0.33
2021-09-03 18:45:52.9730,0.42,0.04,0.17,0.45
2021-09-03 18:45:52.9890,0.29,0.02,0.16,0.33
2021-09-03 18:45:52.9930,0.09,0.02,0.13,0.15
2021-09-03 18:45:53.0030,0.06,-0.06,0.16,0.18
2021-09-03 18:45:53.0130,0.04,-0.05,0.09,0.11
2021-09-03 18:45:53.0230,0.12,-0.03,0.05,0.13
2021-09-03 18:45:53.0330,0.07,0.06,0.0,0.09
2021-09-03 18:45:53.0420,0.04,0.05,0.02,0.06
2021-09-03 18:45:53.0530,-0.04,0.01,0.07,0.08
2021-09-03 18:45:53.0630,-0.12,-0.04,0.07,0.14
2021-09-03 18:45:53.0730,-0.14,-0.01,0.02,0.14
2021-09-03 18:45:53.0890,0.04,0.09,-0.06,0.11
2021-09-03 18:45:53.0930,0.21,0.01,-0.06,0.21
2021-09-03 18:45:53.1030,0.11,-0.09,-0.04,0.14
2021-09-03 18:45:53.1130,0.03,-0.09,-0.03,0.09
2021-09-03 18:45:53.1230,-0.08,0.0,-0.1,0.12
2021-09-03 18:45:53.1330,-0.06,-0.03,-0.12,0.13
2021-09-03 18:45:53.1420,0.0,-0.05,-0.08,0.09
2021-09-03 18:45:53.1520,0.06,-0.03,-0.05,0.08
2021-09-03 18:45:53.1620,0.02,0.05,-0.05,0.07
2021-09-03 18:45:53.1730,-0.11,0.05,0.03,0.12
2021-09-03 18:45:53.1880,-0.13,0.0,0.09,0.15
2021-09-03 18:45:53.1920,-0.05,0.07,0.09,0.12
2021-09-03 18:45:53.2020,0.1,0.06,0.1,0.15
2021-09-03 18:45:53.2120,0.19,0.03,0.06,0.2
2021-09-03 18:45:53.2220,0.23,0.04,0.04,0.23
2021-09-03 18:45:53.2320,0.27,0.0,0.1,0.28
2021-09-03 18:45:53.2420,0.15,0.0,0.14,0.2
2021-09-03 18:45:53.2530,0.04,0.05,0.12,0.13
2021-09-03 18:45:53.2620,0.07,0.03,0.11,0.13
2021-09-03 18:45:53.2730,0.18,0.0,0.13,0.22
2021-09-03 18:45:53.2900,0.19,-0.04,0.19,0.27
2021-09-03 18:45:53.2940,0.06,-0.02,0.16,0.17
2021-09-03 18:45:53.3020,0.03,-0.02,0.17,0.17
2021-09-03 18:45:53.3120,0.02,-0.02,0.18,0.18
2021-09-03 18:45:53.3220,0.1,-0.02,0.18,0.2
2021-09-03 18:45:53.3320,0.12,-0.02,0.15,0.19
2021-09-03 18:45:53.3420,0.04,0.0,0.1,0.1
2021-09-03 18:45:53.3520,0.01,0.01,0.06,0.06
2021-09-03 18:45:53.3620,0.04,0.02,0.03,0.05
2021-09-03 18:45:53.3720,0.06,0.01,-0.05,0.07
2021-09-03 18:45:53.3890,0.07,-0.04,-0.06,0.1
2021-09-03 18:45:53.3920,0.01,-0.02,-0.07,0.07
2021-09-03 18:45:53.4020,0.03,0.01,-0.12,0.12
2021-09-03 18:45:53.4120,0.04,-0.03,-0.01,0.05
2021-09-03 18:45:53.4220,0.01,-0.07,0.07,0.09
2021-09-03 18:45:53.4320,0.17,0.02,0.11,0.2
2021-09-03 18:45:53.4420,0.28,0.06,0.09,0.3
2021-09-03 18:45:53.4520,0.34,0.04,0.02,0.34
2021-09-03 18:45:53.4620,0.4,0.04,-0.11,0.41
2021-09-03 18:45:53.4720,0.31,-0.01,-0.1,0.32
2021-09-03 18:45:53.4880,0.08,0.0,-0.09,0.12
2021-09-03 18:45:53.4920,0.1,0.08,-0.07,0.14
2021-09-03 18:45:53.5010,0.04,0.05,-0.04,0.07
2021-09-03 18:45:53.5110,-0.02,0.0,0.0,0.02
2021-09-03 18:45:53.5210,0.12,0.07,-0.06,0.15
2021-09-03 18:45:53.5310,0.26,0.09,-0.09,0.28
2021-09-03 18:45:53.5410,0.23,0.04,-0.06,0.24
2021-09-03 18:45:53.5510,0.03,0.01,-0.07,0.07
2021-09-03 18:45:53.5610,-0.08,-0.01,-0.08,0.11
2021-09-03 18:45:53.5720,-0.09,-0.04,-0.17,0.19
2021-09-03 18:45:53.5870,0.1,0.01,-0.27,0.28
2021-09-03 18:45:53.5910,0.12,0.02,-0.21,0.24
2021-09-03 18:45:53.6010,-0.04,-0.05,-0.14,0.15
2021-09-03 18:45:53.6110,-0.09,0.04,-0.16,0.18
2021-09-03 18:45:53.6210,0.02,0.14,-0.24,0.27
2021-09-03 18:45:53.6310,0.12,0.08,-0.23,0.27
2021-09-03 18:45:53.6410,0.11,0.07,-0.15,0.19
2021-09-03 18:45:53.6510,0.05,0.14,-0.19,0.24
2021-09-03 18:45:53.6610,0.0,0.11,-0.22,0.24
2021-09-03 18:45:53.6710,-0.1,0.02,-0.18,0.2
2021-09-03 18:45:53.6860,-0.1,0.01,-0.14,0.17
2021-09-03 18:45:53.6910,0.04,0.07,-0.12,0.14
2021-09-03 18:45:53.7010,0.21,0.06,-0.07,0.22
2021-09-03 18:45:53.7110,0.29,0.08,0.06,0.3
2021-09-03 18:45:53.7210,0.31,0.11,0.14,0.35
2021-09-03 18:45:53.7310,0.29,0.14,0.28,0.42
2021-09-03 18:45:53.7410,0.27,0.11,0.4,0.49
2021-09-03 18:45:53.7510,0.39,0.1,0.45,0.6
2021-09-03 18:45:53.7610,0.45,0.01,0.46,0.64
2021-09-03 18:45:53.7710,0.23,0.11,0.52,0.57
2021-09-03 18:45:53.7860,0.04,0.24,0.58,0.62
2021-09-03 18:45:53.7900,0.01,0.17,0.53,0.55
2021-09-03 18:45:53.8010,0.07,0.07,0.48,0.49
2021-09-03 18:45:53.8110,-0.14,-0.05,0.5,0.52
2021-09-03 18:45:53.8210,-0.34,0.05,0.44,0.55
2021-09-03 18:45:53.8310,-0.04,0.17,0.19,0.25
2021-09-03 18:45:53.8400,0.02,-0.01,0.12,0.12
2021-09-03 18:45:53.8510,-0.11,-0.25,0.37,0.45
2021-09-03 18:45:53.8610,-0.18,-0.24,0.47,0.55
2021-09-03 18:45:53.8710,-0.23,-0.12,0.42,0.49
2021-09-03 18:45:53.8870,-0.18,-0.08,0.0,0.19
2021-09-03 18:45:53.8910,-0.27,-0.16,-0.3,0.43
2021-09-03 18:45:53.9000,-0.49,-0.16,-0.29,0.59
2021-09-03 18:45:53.9110,-0.56,-0.1,-0.46,0.73
2021-09-03 18:45:53.9210,-0.6,-0.08,-0.65,0.88
2021-09-03 18:45:53.9300,-0.66,-0.07,-0.43,0.79
2021-09-03 18:45:53.9400,-0.6,-0.07,-0.26,0.65
2021-09-03 18:45:53.9500,-0.34,-0.05,-0.26,0.43
2021-09-03 18:45:53.9600,-0.12,-0.1,-0.35,0.38
2021-09-03 18:45:53.9710,-0.18,-0.01,-0.23,0.29
2021-09-03 18:45:53.9870,-0.51,0.04,-0.1,0.52
2021-09-03 18:45:53.9910,-0.72,-0.09,-0.18,0.74
2021-09-03 18:45:54.0000,-0.57,0.01,-0.33,0.65
2021-09-03 18:45:54.0100,-0.22,0.1,-0.51,0.56
2021-09-03 18:45:54.0200,0.13,0.08,-0.58,0.59
2021-09-03 18:45:54.0300,0.14,0.12,-0.46,0.49
2021-09-03 18:45:54.0400,-0.06,0.04,-0.24,0.25
2021-09-03 18:45:54.0500,-0.26,-0.03,0.01,0.26
2021-09-03 18:45:54.0600,-0.43,-0.01,0.17,0.46
2021-09-03 18:45:54.0710,-0.44,0.06,0.18,0.47
2021-09-03 18:45:54.0880,-0.28,0.18,0.33,0.46
2021-09-03 18:45:54.0920,-0.31,0.0,0.38,0.49
2021-09-03 18:45:54.1000,-0.23,-0.06,0.35,0.42
2021-09-03 18:45:54.1100,-0.08,0.08,0.25,0.27
2021-09-03 18:45:54.1200,-0.05,0.07,0.26,0.27
2021-09-03 18:45:54.1300,-0.06,0.05,0.33,0.33
2021-09-03 18:45:54.1390,-0.02,0.07,0.27,0.27
2021-09-03 18:45:54.1500,0.03,0.11,0.23,0.25
2021-09-03 18:45:54.1600,0.15,0.05,0.3,0.33
2021-09-03 18:45:54.1700,0.26,-0.15,0.34,0.45
2021-09-03 18:45:54.1860,0.36,-0.14,0.32,0.5
2021-09-03 18:45:54.1900,0.39,-0.03,0.34,0.51
2021-09-03 18:45:54.2000,0.11,-0.08,0.42,0.44
2021-09-03 18:45:54.2090,-0.11,-0.01,0.39,0.4
2021-09-03 18:45:54.2200,-0.19,0.13,0.32,0.39
2021-09-03 18:45:54.2300,-0.16,0.14,0.28,0.35
2021-09-03 18:45:54.2390,-0.04,-0.01,0.18,0.18
2021-09-03 18:45:54.2490,0.24,-0.04,0.06,0.25
2021-09-03 18:45:54.2590,0.41,0.0,-0.07,0.41
2021-09-03 18:45:54.2690,0.21,-0.08,-0.11,0.25
2021-09-03 18:45:54.2850,-0.06,-0.21,-0.12,0.24
2021-09-03 18:45:54.2900,0.08,-0.05,-0.14,0.16
2021-09-03 18:45:54.2990,0.24,0.14,0.03,0.27
2021-09-03 18:45:54.3090,0.01,0.15,0.32,0.35
2021-09-03 18:45:54.3190,-0.27,0.11,0.45,0.53
2021-09-03 18:45:54.3290,-0.5,0.09,0.43,0.66
2021-09-03 18:45:54.3390,-0.4,0.11,0.4,0.57
2021-09-03 18:45:54.3490,-0.02,0.05,0.28,0.28
2021-09-03 18:45:54.3590,0.46,-0.01,0.16,0.48
2021-09-03 18:45:54.3690,0.59,-0.02,0.07,0.59
2021-09-03 18:45:54.3850,0.29,-0.07,0.1,0.31
2021-09-03 18:45:54.3890,0.25,0.0,0.17,0.3
2021-09-03 18:45:54.3990,0.27,0.03,0.39,0.47
2021-09-03 18:45:54.4090,0.15,-0.01,0.67,0.68
2021-09-03 18:45:54.4190,0.14,0.03,0.75,0.76
2021-09-03 18:45:54.4290,0.26,0.01,0.86,0.89
2021-09-03 18:45:54.4390,0.33,-0.09,1.07,1.12
2021-09-03 18:45:54.4490,0.21,-0.13,1.23,1.25
2021-09-03 18:45:54.4590,0.24,-0.11,1.18,1.2
2021-09-03 18:45:54.4690,0.25,-0.2,1.02,1.06
2021-09-03 18:45:54.4860,0.26,-0.47,0.9,1.04
2021-09-03 18:45:54.4890,0.03,-1.18,1.47,1.88
2021-09-03 18:45:54.4990,-0.38,-1.35,2.07,2.5
2021-09-03 18:45:54.5090,0.16,-0.63,2.13,2.22
2021-09-03 18:45:54.5190,0.7,-0.51,2.04,2.21
2021-09-03 18:45:54.5290,0.51,-0.87,2.08,2.31
2021-09-03 18:45:54.5380,0.68,-0.99,2.12,2.43
2021-09-03 18:45:54.5490,1.21,-0.86,1.87,2.38
2021-09-03 18:45:54.5580,1.76,-0.92,1.53,2.5
2021-09-03 18:45:54.5690,2.14,-1.52,1.09,2.84
2021-09-03 18:45:54.5840,2.39,-2.25,0.76,3.36
2021-09-03 18:45:54.5890,2.59,-2.7,0.32,3.75
2021-09-03 18:45:54.5990,2.74,-2.77,-0.06,3.89
2021-09-03 18:45:54.6080,2.95,-2.78,-0.19,4.05
2021-09-03 18:45:54.6180,3.14,-2.97,-0.31,4.33
2021-09-03 18:45:54.6280,3.37,-2.9,-0.4,4.46
2021-09-03 18:45:54.6380,3.62,-2.83,-0.32,4.6
2021-09-03 18:45:54.6490,3.76,-2.76,-0.08,4.66
2021-09-03 18:45:54.6590,3.66,-2.63,-0.11,4.5
2021-09-03 18:45:54.6690,3.22,-2.53,-0.19,4.09
2021-09-03 18:45:54.6880,2.49,-2.7,0.18,3.67
2021-09-03 18:45:54.6910,1.99,-2.91,0.63,3.58
2021-09-03 18:45:54.6980,1.51,-2.69,1.02,3.24
2021-09-03 18:45:54.7080,0.97,-2.47,1.43,3.01
2021-09-03 18:45:54.7180,0.11,-2.14,1.65,2.7
2021-09-03 18:45:54.7280,-0.83,-2.0,1.8,2.81
2021-09-03 18:45:54.7390,-0.94,-2.18,1.53,2.82
2021-09-03 18:45:54.7490,0.13,-1.98,1.34,2.39
2021-09-03 18:45:54.7580,1.2,-1.55,1.69,2.58
2021-09-03 18:45:54.7680,2.05,-1.76,2.62,3.76
2021-09-03 18:45:54.7870,2.93,-1.3,3.0,4.39
2021-09-03 18:45:54.7900,3.91,-0.32,3.28,5.11
2021-09-03 18:45:54.7980,4.3,0.18,3.38,5.47
2021-09-03 18:45:54.8080,4.13,0.42,3.16,5.21
2021-09-03 18:45:54.8180,3.42,0.81,2.96,4.59
2021-09-03 18:45:54.8280,2.31,0.82,2.68,3.63
2021-09-03 18:45:54.8380,1.59,0.65,2.44,2.98
2021-09-03 18:45:54.8480,1.13,0.39,2.28,2.57
2021-09-03 18:45:54.8580,0.59,0.23,2.1,2.19
2021-09-03 18:45:54.8680,0.13,0.42,1.96,2.0
2021-09-03 18:45:54.8860,-0.02,0.58,1.8,1.89
2021-09-03 18:45:54.8890,0.0,0.83,1.51,1.72
2021-09-03 18:45:54.8980,0.11,1.01,1.15,1.53
2021-09-03 18:45:54.9070,0.09,1.12,0.85,1.4
2021-09-03 18:45:54.9180,0.2,1.4,0.22,1.43
2021-09-03 18:45:54.9280,0.57,1.22,-0.21,1.36
2021-09-03 18:45:54.9370,0.5,0.69,-0.16,0.86
2021-09-03 18:45:54.9480,0.17,0.56,0.09,0.59
2021-09-03 18:45:54.9580,-0.25,0.83,0.16,0.88
2021-09-03 18:45:54.9680,-0.43,0.64,0.02,0.77
2021-09-03 18:45:54.9860,-0.46,0.19,-0.29,0.57
2021-09-03 18:45:54.9890,-0.44,-0.07,-0.55,0.7
2021-09-03 18:45:54.9980,-0.51,-0.14,-0.79,0.95
2021-09-03 18:45:55.0080,-0.55,-0.23,-1.23,1.36
2021-09-03 18:45:55.0170,-0.38,-0.37,-2.02,2.08
2021-09-03 18:45:55.0280,0.02,-0.55,-2.49,2.55
2021-09-03 18:45:55.0370,-0.28,-0.61,-2.44,2.53
2021-09-03 18:45:55.0470,-0.93,-0.5,-2.16,2.4
2021-09-03 18:45:55.0570,-1.6,0.01,-2.01,2.56
2021-09-03 18:45:55.0680,-2.75,0.52,-2.27,3.6
2021-09-03 18:45:55.0860,-3.92,0.48,-2.75,4.81
2021-09-03 18:45:55.0890,-4.71,1.01,-3.08,5.71
2021-09-03 18:45:55.0970,-5.31,2.33,-3.49,6.76
2021-09-03 18:45:55.1070,-5.27,2.98,-3.9,7.2
2021-09-03 18:45:55.1170,-4.82,3.15,-3.92,6.96
2021-09-03 18:45:55.1270,-4.73,3.56,-3.8,7.03
2021-09-03 18:45:55.1370,-5.15,4.11,-3.64,7.52
2021-09-03 18:45:55.1470,-5.89,4.21,-3.88,8.21
2021-09-03 18:45:55.1570,-6.38,4.0,-4.4,8.72
2021-09-03 18:45:55.1670,-6.55,3.57,-4.72,8.82
2021-09-03 18:45:55.1840,-5.16,1.89,-3.9,6.73
2021-09-03 18:45:55.1870,0.11,-1.77,-1.43,2.27
2021-09-03 18:45:55.1970,7.44,-5.45,1.32,9.31
2021-09-03 18:45:55.2070,12.04,-5.47,3.19,13.6
2021-09-03 18:45:55.2170,10.75,-2.09,3.03,11.36
2021-09-03 18:45:55.2270,4.16,-0.78,1.72,4.56
2021-09-03 18:45:55.2370,-1.97,-2.35,0.93,3.2
2021-09-03 18:45:55.2470,-6.79,-3.82,0.09,7.79
2021-09-03 18:45:55.2560,-10.59,-4.01,-1.77,11.46
2021-09-03 18:45:55.2670,-10.92,-3.58,-4.13,12.21
2021-09-03 18:45:55.2830,-6.42,-3.64,-5.28,9.07
2021-09-03 18:45:55.2860,-1.09,-1.46,-4.4,4.76
2021-09-03 18:45:55.2970,2.02,2.48,-1.42,3.49
2021-09-03 18:45:55.3070,3.17,3.24,-1.48,4.76
2021-09-03 18:45:55.3170,0.62,0.04,-2.66,2.73
2021-09-03 18:45:55.3260,-3.62,-1.8,-1.57,4.33
2021-09-03 18:45:55.3360,-5.62,-1.0,-1.01,5.79
2021-09-03 18:45:55.3460,-4.81,-0.78,-0.68,4.92
2021-09-03 18:45:55.3560,-3.03,-0.73,-0.54,3.16
2021-09-03 18:45:55.3660,-1.19,-0.65,-0.86,1.6
2021-09-03 18:45:55.3820,-0.03,-0.62,-1.11,1.27
2021-09-03 18:45:55.3860,0.13,-0.56,-1.2,1.33
2021-09-03 18:45:55.3960,-0.55,-0.4,-0.91,1.13
2021-09-03 18:45:55.4060,-1.25,-0.49,-0.4,1.4
2021-09-03 18:45:55.4160,-1.52,-0.67,0.03,1.66
2021-09-03 18:45:55.4260,-1.53,-0.58,0.16,1.64
2021-09-03 18:45:55.4360,-1.21,-0.32,0.01,1.25
2021-09-03 18:45:55.4460,-0.77,-0.12,-0.02,0.77
2021-09-03 18:45:55.4560,-0.31,-0.05,-0.21,0.37
2021-09-03 18:45:55.4660,-0.06,-0.09,-0.43,0.44
2021-09-03 18:45:55.4850,-0.23,-0.19,-0.4,0.49
2021-09-03 18:45:55.4880,-0.46,-0.14,-0.39,0.61
2021-09-03 18:45:55.4960,-0.61,0.17,-0.34,0.71
2021-09-03 18:45:55.5060,-0.61,0.45,-0.3,0.81
2021-09-03 18:45:55.5160,-0.35,0.51,-0.22,0.65
2021-09-03 18:45:55.5260,0.01,0.38,-0.19,0.42
2021-09-03 18:45:55.5360,0.31,0.34,-0.13,0.47
2021-09-03 18:45:55.5460,0.31,0.34,0.05,0.46
2021-09-03 18:45:55.5560,0.08,0.18,0.33,0.38
2021-09-03 18:45:55.5660,-0.07,0.06,0.53,0.53
2021-09-03 18:45:55.5830,0.04,0.11,0.66,0.67
2021-09-03 18:45:55.5870,0.09,0.19,0.73,0.75
2021-09-03 18:45:55.5950,0.1,0.18,0.66,0.69
2021-09-03 18:45:55.6060,0.16,0.09,0.57,0.59
2021-09-03 18:45:55.6160,0.25,0.18,0.53,0.61
2021-09-03 18:45:55.6260,0.27,0.22,0.52,0.62
2021-09-03 18:45:55.6360,0.35,0.05,0.62,0.71
2021-09-03 18:45:55.6460,0.61,-0.12,0.65,0.89
2021-09-03 18:45:55.6560,0.77,-0.1,0.64,1.0
2021-09-03 18:45:55.6660,0.81,0.07,0.67,1.05
2021-09-03 18:45:55.6840,1.03,0.03,0.74,1.26
2021-09-03 18:45:55.6880,1.14,-0.04,0.85,1.42
2021-09-03 18:45:55.6950,1.0,0.0,0.89,1.33
2021-09-03 18:45:55.7050,0.97,-0.1,1.07,1.44
2021-09-03 18:45:55.7150,0.91,-0.19,1.46,1.73
2021-09-03 18:45:55.7250,0.65,-0.15,1.67,1.79
2021-09-03 18:45:55.7360,0.34,-0.07,1.7,1.73
2021-09-03 18:45:55.7450,0.23,-0.07,1.79,1.8
2021-09-03 18:45:55.7560,-0.12,-0.33,1.46,1.5
2021-09-03 18:45:55.7660,-0.57,-0.83,1.04,1.44
2021-09-03 18:45:55.7850,-0.91,-1.41,1.0,1.95
2021-09-03 18:45:55.7880,-0.48,-1.77,1.28,2.23
2021-09-03 18:45:55.7950,0.77,-1.81,1.43,2.43
2021-09-03 18:45:55.8050,1.67,-2.24,1.72,3.28
2021-09-03 18:45:55.8150,2.05,-3.07,2.26,4.32
2021-09-03 18:45:55.8250,2.56,-3.81,2.61,5.28
2021-09-03 18:45:55.8350,3.4,-4.11,2.45,5.86
2021-09-03 18:45:55.8450,4.05,-4.28,1.99,6.21
2021-09-03 18:45:55.8550,4.64,-4.55,1.37,6.64
2021-09-03 18:45:55.8650,5.13,-5.05,0.86,7.24
2021-09-03 18:45:55.8820,5.53,-5.51,0.65,7.83
2021-09-03 18:45:55.8850,5.81,-6.06,0.94,8.44
2021-09-03 18:45:55.8950,5.45,-6.35,1.69,8.53
2021-09-03 18:45:55.9050,4.11,-6.11,2.55,7.79
2021-09-03 18:45:55.9150,2.1,-5.72,3.25,6.9
2021-09-03 18:45:55.9250,0.54,-5.28,3.28,6.23
2021-09-03 18:45:55.9350,-0.18,-4.71,2.89,5.52
2021-09-03 18:45:55.9450,-0.25,-3.88,2.36,4.54
2021-09-03 18:45:55.9550,-0.31,-2.87,1.59,3.29
2021-09-03 18:45:55.9650,-0.57,-2.12,0.72,2.31
2021-09-03 18:45:55.9830,0.22,-2.19,0.35,2.22
2021-09-03 18:45:55.9870,2.41,-2.09,1.07,3.36
2021-09-03 18:45:55.9940,4.16,-0.48,1.87,4.58
2021-09-03 18:45:56.0040,5.07,0.23,2.79,5.79
2021-09-03 18:45:56.0150,4.88,0.52,3.55,6.05
2021-09-03 18:45:56.0240,3.85,1.8,3.72,5.64
2021-09-03 18:45:56.0340,2.61,2.41,3.67,5.1
2021-09-03 18:45:56.0440,1.3,2.01,3.34,4.1
2021-09-03 18:45:56.0540,0.41,1.26,2.82,3.11
2021-09-03 18:45:56.0640,0.22,0.84,2.61,2.75
2021-09-03 18:45:56.0830,0.38,0.94,2.63,2.81
2021-09-03 18:45:56.0860,0.36,1.08,2.61,2.84
2021-09-03 18:45:56.0940,0.07,1.0,2.47,2.66
2021-09-03 18:45:56.1040,-0.2,0.97,2.25,2.45
2021-09-03 18:45:56.1140,-0.21,1.16,2.01,2.33
2021-09-03 18:45:56.1240,0.21,1.46,1.9,2.4
2021-09-03 18:45:56.1340,0.76,1.67,1.88,2.62
2021-09-03 18:45:56.1440,1.17,1.49,1.8,2.61
2021-09-03 18:45:56.1540,1.36,1.16,1.7,2.46
2021-09-03 18:45:56.1640,1.09,0.9,1.71,2.21
2021-09-03 18:45:56.1820,0.44,0.53,1.71,1.84
2021-09-03 18:45:56.1850,-0.3,0.02,1.6,1.62
2021-09-03 18:45:56.1940,-0.79,-0.67,1.26,1.63
2021-09-03 18:45:56.2040,-1.02,-1.29,0.76,1.81
2021-09-03 18:45:56.2140,-1.24,-1.69,0.31,2.11
2021-09-03 18:45:56.2240,-1.46,-2.02,-0.16,2.49
2021-09-03 18:45:56.2340,-1.82,-2.26,-0.58,2.95
2021-09-03 18:45:56.2440,-2.23,-2.27,-0.83,3.28
2021-09-03 18:45:56.2540,-2.53,-2.19,-0.97,3.48
2021-09-03 18:45:56.2640,-2.63,-2.28,-1.15,3.66
2021-09-03 18:45:56.2820,-2.71,-2.39,-1.33,3.85
2021-09-03 18:45:56.2860,-3.16,-2.1,-1.32,4.01
2021-09-03 18:45:56.2940,-4.38,-1.44,-1.4,4.81
2021-09-03 18:45:56.3030,-5.32,-0.85,-1.93,5.72
2021-09-03 18:45:56.3140,-4.75,-0.19,-2.02,5.16
2021-09-03 18:45:56.3230,-3.6,0.94,-2.12,4.28
2021-09-03 18:45:56.3340,-2.61,1.91,-2.17,3.89
2021-09-03 18:45:56.3430,-2.34,2.7,-2.01,4.09
2021-09-03 18:45:56.3540,-2.89,3.15,-2.08,4.75
2021-09-03 18:45:56.3640,-3.56,3.87,-1.98,5.61
2021-09-03 18:45:56.3800,-4.42,4.51,-1.7,6.53
2021-09-03 18:45:56.3830,-5.56,4.46,-1.67,7.32
2021-09-03 18:45:56.3930,-6.27,3.93,-2.04,7.67
2021-09-03 18:45:56.4030,-5.88,3.59,-2.68,7.39
2021-09-03 18:45:56.4130,-4.69,3.36,-3.27,6.63
2021-09-03 18:45:56.4230,-3.73,2.7,-3.47,5.76
2021-09-03 18:45:56.4330,-3.4,1.98,-3.44,5.22
2021-09-03 18:45:56.4430,-3.52,1.93,-3.25,5.16
2021-09-03 18:45:56.4530,-2.21,0.28,-0.57,2.29
2021-09-03 18:45:56.4630,2.46,-8.8,2.85,9.57
2021-09-03 18:45:56.4810,11.28,-12.51,0.83,16.86
2021-09-03 18:45:56.4840,9.51,-7.74,-1.89,12.4
2021-09-03 18:45:56.4930,-0.38,-7.19,-0.72,7.23
2021-09-03 18:45:56.5030,-13.1,-12.01,-1.46,17.83
2021-09-03 18:45:56.5130,-13.57,-18.47,-6.59,23.84
2021-09-03 18:45:56.5230,-3.95,-7.82,-13.23,15.86
2021-09-03 18:45:56.5330,2.33,10.94,0.97,11.22
2021-09-03 18:45:56.5430,6.26,17.53,4.82,19.22
2021-09-03 18:45:56.5530,1.36,6.01,-6.59,9.02
2021-09-03 18:45:56.5630,-9.49,-6.46,-4.54,12.34
2021-09-03 18:45:56.5810,-15.01,-3.06,-2.46,15.51
2021-09-03 18:45:56.5840,-9.94,0.75,-3.97,10.72
2021-09-03 18:45:56.5930,-5.14,0.3,-3.29,6.11
2021-09-03 18:45:56.6030,-2.19,-1.38,-2.64,3.69
2021-09-03 18:45:56.6130,2.48,-1.25,-1.97,3.4
2021-09-03 18:45:56.6230,4.92,-0.55,-2.23,5.42
2021-09-03 18:45:56.6330,4.8,-0.46,-1.78,5.14
2021-09-03 18:45:56.6430,1.84,-0.37,-0.61,1.97
2021-09-03 18:45:56.6530,-2.6,-0.45,0.29,2.65
2021-09-03 18:45:56.6630,-4.7,-0.13,0.47,4.72
2021-09-03 18:45:56.6800,-4.48,-0.14,0.46,4.5
2021-09-03 18:45:56.6840,-2.83,0.01,0.49,2.87
2021-09-03 18:45:56.6920,-1.63,0.35,0.69,1.8
2021-09-03 18:45:56.7020,-0.93,0.29,0.43,1.06
2021-09-03 18:45:56.7130,-0.12,0.12,0.16,0.23
2021-09-03 18:45:56.7230,0.13,-0.12,0.12,0.21
2021-09-03 18:45:56.7330,-0.39,-0.36,0.14,0.54
2021-09-03 18:45:56.7430,-0.65,-0.14,0.08,0.66
2021-09-03 18:45:56.7530,-0.3,0.03,-0.12,0.32
2021-09-03 18:45:56.7630,0.04,0.13,-0.01,0.13
2021-09-03 18:45:56.7800,-0.08,0.2,0.3,0.36
2021-09-03 18:45:56.7840,-0.28,0.16,0.6,0.68
2021-09-03 18:45:56.7920,-0.32,0.13,0.79,0.86
2021-09-03 18:45:56.8020,-0.2,0.07,0.87,0.89
2021-09-03 18:45:56.8120,0.04,-0.01,0.75,0.75
2021-09-03 18:45:56.8220,0.42,0.13,0.58,0.72
2021-09-03 18:45:56.8320,0.55,0.17,0.41,0.7
2021-09-03 18:45:56.8420,0.21,0.05,0.34,0.4
2021-09-03 18:45:56.8530,0.02,0.14,0.31,0.34
2021-09-03 18:45:56.8620,0.28,0.26,0.3,0.48
2021-09-03 18:45:56.8810,0.29,0.2,0.3,0.46
2021-09-03 18:45:56.8840,0.02,-0.02,0.31,0.31
2021-09-03 18:45:56.8920,0.29,-0.04,0.47,0.55
2021-09-03 18:45:56.9020,0.9,-0.07,0.58,1.07
2021-09-03 18:45:56.9120,1.31,-0.22,0.71,1.5
2021-09-03 18:45:56.9220,1.27,-0.39,0.82,1.56
2021-09-03 18:45:56.9320,1.37,-0.46,1.14,1.84
2021-09-03 18:45:56.9420,1.77,-0.14,1.38,2.24
2021-09-03 18:45:56.9520,2.03,0.14,1.5,2.52
2021-09-03 18:45:56.9620,1.59,-0.02,1.85,2.43
2021-09-03 18:45:56.9790,0.99,-0.19,2.01,2.24
2021-09-03 18:45:56.9830,1.18,-0.33,2.12,2.44
2021-09-03 18:45:56.9910,1.49,-0.41,1.96,2.49
2021-09-03 18:45:57.0020,1.47,-0.54,1.72,2.32
2021-09-03 18:45:57.0120,1.35,-1.08,1.27,2.14
2021-09-03 18:45:57.0220,2.42,-1.87,1.93,3.61
2021-09-03 18:45:57.0320,2.86,-2.68,2.89,4.86
2021-09-03 18:45:57.0420,1.67,-3.22,3.39,4.96
2021-09-03 18:45:57.0520,1.09,-4.41,3.49,5.72
2021-09-03 18:45:57.0620,1.11,-6.62,2.88,7.3
2021-09-03 18:45:57.0790,2.3,-8.86,1.71,9.31
2021-09-03 18:45:57.0830,4.89,-9.85,1.19,11.06
2021-09-03 18:45:57.0910,6.08,-9.66,1.28,11.48
2021-09-03 18:45:57.1010,5.07,-9.39,1.56,10.78
2021-09-03 18:45:57.1110,3.44,-8.68,2.31,9.61
2021-09-03 18:45:57.1210,2.44,-7.31,2.33,8.05
2021-09-03 18:45:57.1320,1.91,-5.64,1.67,6.18
2021-09-03 18:45:57.1410,1.33,-4.69,1.48,5.09
2021-09-03 18:45:57.1510,0.29,-3.72,1.31,3.95
2021-09-03 18:45:57.1620,-0.42,-2.18,1.37,2.6
2021-09-03 18:45:57.1780,-1.17,-0.53,1.16,1.73
2021-09-03 18:45:57.1820,-1.77,-0.09,0.9,1.98
2021-09-03 18:45:57.1910,-1.37,-0.3,0.51,1.49
2021-09-03 18:45:57.2010,2.48,-1.4,2.16,3.57
2021-09-03 18:45:57.2110,4.89,-0.04,3.86,6.23
2021-09-03 18:45:57.2210,5.94,0.86,6.08,8.54
2021-09-03 18:45:57.2310,5.76,1.77,6.66,8.98
2021-09-03 18:45:57.2410,3.89,3.21,6.16,7.96
2021-09-03 18:45:57.2510,2.12,2.75,5.52,6.52
2021-09-03 18:45:57.2610,0.82,1.67,4.2,4.59
2021-09-03 18:45:57.2780,0.52,0.83,3.4,3.53
2021-09-03 18:45:57.2810,0.82,0.86,3.22,3.43
2021-09-03 18:45:57.2910,1.05,1.04,3.24,3.56
2021-09-03 18:45:57.3010,0.75,0.77,2.99,3.17
2021-09-03 18:45:57.3110,-0.01,0.4,2.64,2.67
2021-09-03 18:45:57.3210,-0.64,0.37,2.23,2.34
2021-09-03 18:45:57.3310,-0.9,0.44,2.01,2.24
2021-09-03 18:45:57.3410,-0.99,0.49,2.09,2.36
2021-09-03 18:45:57.3510,-1.07,0.49,2.19,2.48
2021-09-03 18:45:57.3610,-1.33,0.34,1.99,2.41
2021-09-03 18:45:57.3760,-1.83,0.06,1.57,2.41
2021-09-03 18:45:57.3800,-2.4,-0.45,1.09,2.67
2021-09-03 18:45:57.3910,-2.81,-1.19,0.54,3.09
2021-09-03 18:45:57.4010,-3.0,-2.02,-0.03,3.61
2021-09-03 18:45:57.4110,-3.22,-2.68,-0.61,4.23
2021-09-03 18:45:57.4200,-3.63,-3.16,-1.09,4.93
2021-09-03 18:45:57.4310,-4.12,-3.44,-1.46,5.56
2021-09-03 18:45:57.4410,-4.41,-3.41,-1.7,5.82
2021-09-03 18:45:57.4510,-4.26,-3.16,-1.81,5.6
2021-09-03 18:45:57.4610,-3.82,-2.9,-1.75,5.1
2021-09-03 18:45:57.4770,-3.33,-2.75,-1.69,4.63
2021-09-03 18:45:57.4800,-3.13,-2.69,-1.65,4.44
2021-09-03 18:45:57.4900,-3.36,-2.66,-1.57,4.56
2021-09-03 18:45:57.5000,-4.01,-2.62,-1.57,5.04
2021-09-03 18:45:57.5100,-4.85,-2.37,-1.99,5.75
2021-09-03 18:45:57.5200,-5.55,-2.0,-2.58,6.43
2021-09-03 18:45:57.5310,-6.17,-1.19,-3.74,7.31
2021-09-03 18:45:57.5400,-5.63,-0.48,-4.29,7.09
2021-09-03 18:45:57.5500,-4.76,0.85,-4.04,6.3
2021-09-03 18:45:57.5610,-5.2,1.95,-3.58,6.6
2021-09-03 18:45:57.5770,-6.07,2.15,-3.4,7.28
2021-09-03 18:45:57.5800,-6.15,2.22,-3.05,7.21
2021-09-03 18:45:57.5900,-5.89,2.42,-2.7,6.91
2021-09-03 18:45:57.6000,-6.26,2.32,-2.73,7.21
2021-09-03 18:45:57.6100,-6.83,1.87,-2.89,7.64
2021-09-03 18:45:57.6200,-6.63,1.75,-2.86,7.42
2021-09-03 18:45:57.6300,-5.68,1.9,-2.89,6.65
2021-09-03 18:45:57.6400,-4.7,1.83,-3.01,5.87
2021-09-03 18:45:57.6500,-4.01,1.51,-3.02,5.24
2021-09-03 18:45:57.6610,-3.21,0.77,-2.46,4.11
2021-09-03 18:45:57.6770,-2.65,-0.07,-2.36,3.54
2021-09-03 18:45:57.6810,-1.91,-1.07,-0.33,2.21
2021-09-03 18:45:57.6900,-3.57,-2.36,0.0,4.27
2021-09-03 18:45:57.7000,-2.87,-0.17,-8.87,9.32
2021-09-03 18:45:57.7100,1.95,-1.65,-10.43,10.73
2021-09-03 18:45:57.7200,2.61,-5.52,-8.06,10.11
2021-09-03 18:45:57.7300,1.68,-9.04,-6.4,11.2
2021-09-03 18:45:57.7400,3.51,-2.13,-3.98,5.71
2021-09-03 18:45:57.7500,1.66,4.96,-0.31,5.23
2021-09-03 18:45:57.7600,-0.33,2.38,-1.45,2.8
2021-09-03 18:45:57.7760,-2.23,-1.71,-1.24,3.07
2021-09-03 18:45:57.7800,-2.42,-1.72,-0.18,2.97
2021-09-03 18:45:57.7900,-1.37,0.46,-0.3,1.47
2021-09-03 18:45:57.7990,-1.85,0.58,-0.32,1.96
2021-09-03 18:45:57.8090,-2.76,-0.29,-0.49,2.81
2021-09-03 18:45:57.8190,-2.99,-0.29,-0.85,3.12
2021-09-03 18:45:57.8290,-2.6,-0.13,-0.87,2.74
2021-09-03 18:45:57.8390,-0.99,0.02,-0.66,1.19
2021-09-03 18:45:57.8500,0.89,0.16,-0.37,0.97
2021-09-03 18:45:57.8600,1.61,0.28,-0.11,1.63
2021-09-03 18:45:57.8760,0.53,0.21,0.07,0.57
2021-09-03 18:45:57.8800,-0.69,-0.02,0.15,0.7
2021-09-03 18:45:57.8890,-0.91,0.05,0.21,0.93
2021-09-03 18:45:57.8990,-0.49,0.13,0.2,0.54
2021-09-03 18:45:57.9090,0.08,0.06,0.04,0.1
2021-09-03 18:45:57.9190,0.36,-0.03,0.23,0.42
2021-09-03 18:45:57.9290,0.07,-0.25,0.64,0.69
2021-09-03 18:45:57.9390,-0.31,-0.28,1.06,1.13
2021-09-03 18:45:57.9490,-0.47,-0.09,0.96,1.07
2021-09-03 18:45:57.9590,-0.61,0.0,0.63,0.87
2021-09-03 18:45:57.9760,-0.45,-0.05,0.19,0.49
2021-09-03 18:45:57.9790,-0.14,-0.22,-0.09,0.27
2021-09-03 18:45:57.9890,0.03,-0.35,-0.07,0.35
2021-09-03 18:45:57.9990,-0.23,-0.32,0.02,0.39
2021-09-03 18:45:58.0090,-0.51,-0.23,0.08,0.56
2021-09-03 18:45:58.0190,-0.49,-0.13,0.05,0.5
2021-09-03 18:45:58.0290,-0.37,-0.17,-0.08,0.41
2021-09-03 18:45:58.0390,-0.39,-0.14,-0.19,0.45
2021-09-03 18:45:58.0490,-0.38,-0.06,-0.11,0.4
2021-09-03 18:45:58.0590,-0.28,-0.05,-0.15,0.32
2021-09-03 18:45:58.0750,-0.23,-0.02,-0.18,0.29
2021-09-03 18:45:58.0790,-0.12,0.12,-0.17,0.24
2021-09-03 18:45:58.0890,-0.17,0.12,-0.25,0.32
2021-09-03 18:45:58.0990,-0.06,0.15,-0.33,0.36
2021-09-03 18:45:58.1090,-0.05,0.28,-0.24,0.37
2021-09-03 18:45:58.1190,-0.13,0.29,0.01,0.31
2021-09-03 18:45:58.1290,-0.15,0.21,0.2,0.32
2021-09-03 18:45:58.1390,-0.08,0.08,0.27,0.29
2021-09-03 18:45:58.1490,-0.2,0.09,0.26,0.34
2021-09-03 18:45:58.1590,-0.26,0.14,0.27,0.4
2021-09-03 18:45:58.1740,-0.3,0.11,0.21,0.38
2021-09-03 18:45:58.1780,-0.33,0.01,0.13,0.35
2021-09-03 18:45:58.1880,-0.42,-0.01,0.06,0.42
2021-09-03 18:45:58.1980,-0.39,-0.04,0.0,0.39
2021-09-03 18:45:58.2080,-0.37,-0.08,-0.1,0.39
2021-09-03 18:45:58.2180,-0.33,-0.02,-0.09,0.34
2021-09-03 18:45:58.2280,-0.37,-0.06,-0.12,0.39
2021-09-03 18:45:58.2380,-0.44,-0.16,-0.27,0.54
2021-09-03 18:45:58.2480,-0.41,-0.08,-0.37,0.55
2021-09-03 18:45:58.2590,-0.32,-0.12,-0.43,0.54
2021-09-03 18:45:58.2740,-0.09,-0.16,-0.37,0.41
2021-09-03 18:45:58.2780,0.07,-0.15,-0.31,0.35
2021-09-03 18:45:58.2880,-0.15,-0.19,-0.26,0.35
2021-09-03 18:45:58.2980,-0.26,-0.16,-0.18,0.35
2021-09-03 18:45:58.3080,-0.06,-0.07,-0.07,0.11
2021-09-03 18:45:58.3180,0.21,-0.08,-0.09,0.24
2021-09-03 18:45:58.3280,0.38,-0.06,-0.16,0.41
2021-09-03 18:45:58.3380,0.38,0.05,-0.18,0.42
2021-09-03 18:45:58.3480,0.23,0.08,-0.06,0.25
2021-09-03 18:45:58.3580,-0.17,-0.03,0.25,0.3
2021-09-03 18:45:58.3740,-0.6,-0.27,0.55,0.85
2021-09-03 18:45:58.3780,-0.28,-0.26,0.78,0.86
2021-09-03 18:45:58.3880,0.07,-0.04,0.94,0.94
2021-09-03 18:45:58.3980,0.01,-0.2,1.04,1.05
2021-09-03 18:45:58.4080,-0.02,-0.21,1.22,1.23
2021-09-03 18:45:58.4180,-0.31,-0.22,1.38,1.43
2021-09-03 18:45:58.4280,-0.69,-0.33,1.68,1.84
2021-09-03 18:45:58.4380,-0.41,-0.27,2.0,2.05
2021-09-03 18:45:58.4480,0.22,-0.41,1.73,1.79
2021-09-03 18:45:58.4580,0.39,-0.25,1.28,1.36
2021-09-03 18:45:58.4750,0.38,0.09,1.08,1.14
2021-09-03 18:45:58.4790,0.53,0.05,0.83,0.98
2021-09-03 18:45:58.4880,0.68,-0.15,0.62,0.93
2021-09-03 18:45:58.4980,0.81,-0.13,0.53,0.97
2021-09-03 18:45:58.5080,1.01,-0.18,0.58,1.17
2021-09-03 18:45:58.5180,1.31,-0.26,0.74,1.52
2021-09-03 18:45:58.5280,1.58,-0.34,0.95,1.87
2021-09-03 18:45:58.5370,1.66,-0.59,1.06,2.05
2021-09-03 18:45:58.5480,1.61,-0.91,1.22,2.21
2021-09-03 18:45:58.5580,1.26,-1.29,1.47,2.32
2021-09-03 18:45:58.5750,0.78,-1.77,1.65,2.54
2021-09-03 18:45:58.5790,0.3,-1.84,1.35,2.3
2021-09-03 18:45:58.5870,-0.11,-1.42,0.47,1.49
2021-09-03 18:45:58.5970,-0.68,-1.27,-0.19,1.45
2021-09-03 18:45:58.6070,-1.19,-1.17,-0.67,1.79
2021-09-03 18:45:58.6170,-1.35,-0.63,-0.92,1.75
2021-09-03 18:45:58.6270,-1.45,-0.14,-1.07,1.8
2021-09-03 18:45:58.6370,-1.93,0.05,-1.03,2.18
2021-09-03 18:45:58.6470,-2.3,0.14,-0.74,2.42
2021-09-03 18:45:58.6570,-2.5,0.54,-0.52,2.6
2021-09-03 18:45:58.6730,-2.51,0.97,-0.6,2.75
2021-09-03 18:45:58.6770,-2.1,0.97,-0.79,2.44
2021-09-03 18:45:58.6870,-1.51,0.92,-0.7,1.9
2021-09-03 18:45:58.6970,-0.77,0.95,-0.42,1.29
2021-09-03 18:45:58.7070,0.12,0.9,0.19,0.92
2021-09-03 18:45:58.7170,0.69,0.86,0.61,1.26
2021-09-03 18:45:58.7270,0.7,0.9,0.72,1.34
2021-09-03 18:45:58.7370,-0.13,0.47,0.58,0.75
2021-09-03 18:45:58.7470,-0.65,-0.02,0.29,0.71
2021-09-03 18:45:58.7570,-0.77,0.2,0.16,0.81
2021-09-03 18:45:58.7720,-0.8,0.63,0.09,1.02
2021-09-03 18:45:58.7760,-0.63,0.67,-0.15,0.93
2021-09-03 18:45:58.7870,-0.42,0.77,-0.41,0.96
2021-09-03 18:45:58.7970,-0.21,1.19,-0.92,1.51
2021-09-03 18:45:58.8070,0.13,1.64,-1.35,2.12
2021-09-03 18:45:58.8170,0.55,1.48,-1.13,1.94
2021-09-03 18:45:58.8260,0.12,1.15,-1.81,2.14
2021-09-03 18:45:58.8370,-0.42,2.8,-2.83,4.0
2021-09-03 18:45:58.8470,-0.46,2.32,-2.56,3.48
2021-09-03 18:45:58.8570,0.23,0.81,-2.44,2.58
2021-09-03 18:45:58.8720,2.75,0.11,-2.7,3.85
2021-09-03 18:45:58.8760,4.8,-0.28,-2.36,5.35
2021-09-03 18:45:58.8870,3.44,-1.21,-0.79,3.73
2021-09-03 18:45:58.8960,0.61,-2.07,0.03,2.15
2021-09-03 18:45:58.9060,0.25,-1.3,-0.04,1.32
2021-09-03 18:45:58.9160,0.67,0.11,0.13,0.69
2021-09-03 18:45:58.9260,-0.29,-0.1,0.2,0.36
2021-09-03 18:45:58.9360,-0.97,-0.86,0.19,1.31
2021-09-03 18:45:58.9460,-0.57,-0.56,0.54,0.96
2021-09-03 18:45:58.9560,-0.18,0.02,0.64,0.66
2021-09-03 18:45:58.9720,-0.31,-0.1,0.27,0.42
2021-09-03 18:45:58.9760,-0.55,-0.37,0.05,0.66
2021-09-03 18:45:58.9860,-0.38,-0.17,-0.14,0.43
2021-09-03 18:45:58.9960,0.16,0.17,-0.33,0.4
2021-09-03 18:45:59.0060,0.31,0.23,-0.38,0.54
2021-09-03 18:45:59.0160,0.04,0.17,-0.41,0.44
2021-09-03 18:45:59.0260,-0.23,0.08,-0.39,0.45
2021-09-03 18:45:59.0360,-0.36,-0.02,-0.19,0.4
2021-09-03 18:45:59.0460,-0.29,-0.02,0.09,0.3
2021-09-03 18:45:59.0560,-0.13,0.07,0.36,0.38
2021-09-03 18:45:59.0730,-0.05,0.13,0.6,0.61
2021-09-03 18:45:59.0770,0.06,0.05,0.78,0.78
2021-09-03 18:45:59.0860,0.24,-0.14,0.96,0.99
2021-09-03 18:45:59.0960,0.45,-0.04,1.03,1.12
2021-09-03 18:45:59.1050,0.58,0.3,0.96,1.16
2021-09-03 18:45:59.1160,0.73,0.31,0.85,1.16
2021-09-03 18:45:59.1250,0.88,-0.04,0.75,1.15
2021-09-03 18:45:59.1360,0.78,-0.05,0.6,0.98
2021-09-03 18:45:59.1460,0.64,0.07,0.52,0.82
2021-09-03 18:45:59.1560,0.58,-0.05,0.44,0.72
2021-09-03 18:45:59.1710,0.39,-0.16,0.41,0.58
2021-09-03 18:45:59.1750,0.12,0.06,0.37,0.39
2021-09-03 18:45:59.1860,-0.15,0.3,0.32,0.46
2021-09-03 18:45:59.1950,-0.13,0.06,0.32,0.35
2021-09-03 18:45:59.2060,0.06,-0.19,0.39,0.43
2021-09-03 18:45:59.2160,0.14,0.01,0.48,0.5
2021-09-03 18:45:59.2250,0.01,0.25,0.46,0.52
2021-09-03 18:45:59.2360,-0.19,0.14,0.39,0.45
2021-09-03 18:45:59.2450,-0.21,-0.16,0.43,0.5
2021-09-03 18:45:59.2550,-0.1,-0.12,0.52,0.54
2021-09-03 18:45:59.2700,0.03,0.04,0.52,0.52
2021-09-03 18:45:59.2750,0.08,0.04,0.36,0.37
2021-09-03 18:45:59.2850,0.14,0.02,0.19,0.23
2021-09-03 18:45:59.2950,0.18,-0.06,0.19,0.26
2021-09-03 18:45:59.3050,0.18,-0.1,0.23,0.3
2021-09-03 18:45:59.3150,0.08,-0.05,0.25,0.26
2021-09-03 18:45:59.3250,-0.01,0.09,0.18,0.2
2021-09-03 18:45:59.3350,0.0,0.16,0.06,0.17
2021-09-03 18:45:59.3450,0.04,0.06,-0.01,0.07
2021-09-03 18:45:59.3560,0.1,-0.15,-0.02,0.18
2021-09-03 18:45:59.3720,0.12,-0.12,0.04,0.17
2021-09-03 18:45:59.3760,0.09,0.06,0.08,0.13
2021-09-03 18:45:59.3850,0.05,0.09,0.1,0.14
2021-09-03 18:45:59.3950,-0.01,0.04,0.07,0.08
2021-09-03 18:45:59.4050,-0.02,0.07,0.05,0.08
2021-09-03 18:45:59.4150,0.02,-0.03,0.13,0.13
2021-09-03 18:45:59.4250,-0.06,-0.04,0.16,0.17
2021-09-03 18:45:59.4350,-0.17,0.02,0.14,0.22
2021-09-03 18:45:59.4450,-0.12,0.0,0.06,0.13
2021-09-03 18:45:59.4550,0.01,0.0,-0.04,0.04
2021-09-03 18:45:59.4700,0.08,0.07,-0.1,0.14
2021-09-03 18:45:59.4750,0.1,0.06,-0.15,0.19
2021-09-03 18:45:59.4850,0.07,-0.03,-0.11,0.13
2021-09-03 18:45:59.4950,-0.07,-0.08,-0.03,0.11
2021-09-03 18:45:59.5050,-0.19,-0.05,-0.03,0.19
2021-09-03 18:45:59.5150,-0.18,-0.01,-0.06,0.19
2021-09-03 18:45:59.5240,-0.09,-0.01,-0.1,0.13
2021-09-03 18:45:59.5350,-0.1,0.01,-0.11,0.14
2021-09-03 18:45:59.5450,-0.11,-0.05,-0.1,0.15
2021-09-03 18:45:59.5550,0.01,-0.1,-0.05,0.11
2021-09-03 18:45:59.5700,0.15,-0.07,0.0,0.16
2021-09-03 18:45:59.5740,0.01,0.07,-0.02,0.07
2021-09-03 18:45:59.5850,-0.23,0.08,0.01,0.24
2021-09-03 18:45:59.5940,-0.15,0.07,0.03,0.16
2021-09-03 18:45:59.6040,0.04,-0.02,-0.01,0.04
2021-09-03 18:45:59.6150,-0.1,-0.05,0.0,0.11
2021-09-03 18:45:59.6240,-0.25,0.06,-0.01,0.25
2021-09-03 18:45:59.6350,-0.21,-0.01,-0.03,0.21
2021-09-03 18:45:59.6450,-0.22,-0.07,-0.07,0.24
2021-09-03 18:45:59.6550,-0.23,0.07,-0.1,0.26
2021-09-03 18:45:59.6710,-0.2,0.1,-0.06,0.23
2021-09-03 18:45:59.6750,-0.2,0.03,-0.03,0.2
2021-09-03 18:45:59.6850,-0.14,-0.03,0.0,0.14
2021-09-03 18:45:59.6940,0.04,-0.06,0.05,0.08
2021-09-03 18:45:59.7040,0.15,-0.03,0.05,0.16
2021-09-03 18:45:59.7140,0.08,0.03,0.07,0.11
2021-09-03 18:45:59.7240,-0.02,0.02,0.04,0.04
2021-09-03 18:45:59.7350,-0.06,-0.01,-0.01,0.06
2021-09-03 18:45:59.7440,-0.11,0.03,0.01,0.11
2021-09-03 18:45:59.7540,-0.14,-0.01,0.06,0.15
2021-09-03 18:45:59.7700,-0.14,-0.03,0.03,0.14
2021-09-03 18:45:59.7740,-0.13,0.04,-0.05,0.14
2021-09-03 18:45:59.7840,-0.09,0.04,-0.08,0.12
2021-09-03 18:45:59.7940,0.0,-0.04,-0.02,0.04
2021-09-03 18:45:59.8040,0.05,0.01,0.0,0.05
2021-09-03 18:45:59.8140,0.05,0.03,0.0,0.05
2021-09-03 18:45:59.8240,-0.04,-0.04,0.0,0.05
2021-09-03 18:45:59.8340,-0.12,-0.03,0.06,0.13
2021-09-03 18:45:59.8440,-0.12,0.02,0.1,0.15
2021-09-03 18:45:59.8540,0.03,0.02,0.04,0.05
2021-09-03 18:45:59.8710,0.09,-0.05,0.03,0.1
2021-09-03 18:45:59.8750,0.06,-0.02,0.07,0.09
2021-09-03 18:45:59.8830,0.05,0.03,0.09,0.1
2021-09-03 18:45:59.8940,-0.01,0.02,0.07,0.07
2021-09-03 18:45:59.9030,-0.08,0.0,0.04,0.08
2021-09-03 18:45:59.9140,-0.02,0.03,0.03,0.04
2021-09-03 18:45:59.9230,0.06,0.05,-0.02,0.08
2021-09-03 18:45:59.9340,0.0,0.02,0.04,0.04
2021-09-03 18:45:59.9430,-0.01,-0.04,0.12,0.12
2021-09-03 18:45:59.9540,0.14,-0.01,0.16,0.21
2021-09-03 18:45:59.9700,0.19,0.07,0.07,0.21
2021-09-03 18:45:59.9740,-0.03,0.07,0.03,0.08
2021-09-03 18:45:59.9830,-0.19,0.02,0.14,0.23
2021-09-03 18:45:59.9930,-0.16,-0.06,0.16,0.23
2021-09-03 18:46:00.0030,-0.1,-0.03,0.12,0.15
2021-09-03 18:46:00.0130,-0.05,-0.01,0.06,0.07
2021-09-03 18:46:00.0230,-0.05,0.01,-0.08,0.09
2021-09-03 18:46:00.0340,-0.07,0.02,-0.13,0.14
2021-09-03 18:46:00.0430,-0.05,0.01,-0.12,0.13
2021-09-03 18:46:00.0540,-0.1,-0.04,-0.08,0.13
2021-09-03 18:46:00.0700,-0.14,0.05,-0.03,0.15
2021-09-03 18:46:00.0730,-0.07,0.05,-0.14,0.16
2021-09-03 18:46:00.0830,-0.07,-0.06,-0.24,0.25
2021-09-03 18:46:00.0930,-0.06,-0.06,-0.25,0.26
2021-09-03 18:46:00.1030,-0.09,0.03,-0.21,0.23
2021-09-03 18:46:00.1130,-0.17,-0.01,-0.14,0.22
2021-09-03 18:46:00.1230,-0.26,-0.03,-0.08,0.27
2021-09-03 18:46:00.1330,-0.23,0.02,-0.03,0.23
2021-09-03 18:46:00.1430,-0.11,0.05,-0.01,0.12
2021-09-03 18:46:00.1530,-0.08,0.02,-0.02,0.08
2021-09-03 18:46:00.1690,-0.11,-0.02,-0.04,0.11
2021-09-03 18:46:00.1730,-0.14,-0.03,0.01,0.14
2021-09-03 18:46:00.1830,-0.1,0.01,0.1,0.14
2021-09-03 18:46:00.1930,0.04,0.02,0.08,0.09
2021-09-03 18:46:00.2030,0.17,0.03,0.01,0.17
2021-09-03 18:46:00.2130,0.18,0.07,0.0,0.19
2021-09-03 18:46:00.2220,0.13,0.0,0.03,0.13
2021-09-03 18:46:00.2330,0.07,0.01,0.03,0.07
2021-09-03 18:46:00.2420,-0.01,0.04,0.1,0.1
2021-09-03 18:46:00.2530,-0.04,-0.03,0.11,0.12
2021-09-03 18:46:00.2680,0.01,-0.01,0.1,0.1
2021-09-03 18:46:00.2720,0.09,0.03,0.09,0.13
2021-09-03 18:46:00.2830,0.12,0.04,0.05,0.13
2021-09-03 18:46:00.2920,0.03,0.03,0.0,0.04
2021-09-03 18:46:00.3030,-0.02,-0.01,0.01,0.02
2021-09-03 18:46:00.3130,-0.04,-0.04,0.0,0.05
2021-09-03 18:46:00.3220,-0.05,-0.07,0.0,0.08
2021-09-03 18:46:00.3330,0.02,-0.06,0.02,0.06
2021-09-03 18:46:00.3420,0.06,0.03,0.03,0.07
2021-09-03 18:46:00.3530,0.06,0.05,0.04,0.08
2021-09-03 18:46:00.3690,0.0,0.02,0.09,0.09
2021-09-03 18:46:00.3730,-0.01,0.03,0.13,0.13
2021-09-03 18:46:00.3820,0.09,0.02,0.17,0.19
2021-09-03 18:46:00.3920,0.2,-0.01,0.14,0.24
2021-09-03 18:46:00.4020,0.08,0.0,0.12,0.14
2021-09-03 18:46:00.4120,0.01,0.0,0.11,0.11
2021-09-03 18:46:00.4220,-0.04,0.02,0.09,0.1
2021-09-03 18:46:00.4320,-0.08,0.04,0.08,0.12
2021-09-03 18:46:00.4420,-0.01,0.04,0.07,0.08
2021-09-03 18:46:00.4520,-0.01,0.0,0.04,0.04
2021-09-03 18:46:00.4690,-0.04,0.01,0.07,0.08
2021-09-03 18:46:00.4720,-0.12,-0.03,0.08,0.14
2021-09-03 18:46:00.4820,-0.17,-0.02,0.05,0.17
2021-09-03 18:46:00.4920,-0.1,0.02,0.04,0.1
2021-09-03 18:46:00.5020,-0.09,0.04,0.03,0.1
2021-09-03 18:46:00.5120,-0.13,0.03,0.05,0.14
2021-09-03 18:46:00.5220,-0.13,-0.01,0.08,0.15
2021-09-03 18:46:00.5320,-0.14,-0.01,0.04,0.14
2021-09-03 18:46:00.5420,-0.13,0.02,0.05,0.14
2021-09-03 18:46:00.5520,-0.06,0.02,0.09,0.11
2021-09-03 18:46:00.5690,-0.02,0.07,0.13,0.14
2021-09-03 18:46:00.5730,-0.01,0.06,0.17,0.18
2021-09-03 18:46:00.5810,-0.05,0.05,0.13,0.14
2021-09-03 18:46:00.5920,-0.1,0.02,0.12,0.15
2021-09-03 18:46:00.6020,-0.1,0.0,0.11,0.14
2021-09-03 18:46:00.6110,-0.08,0.0,0.09,0.12
2021-09-03 18:46:00.6220,-0.06,0.07,0.08,0.12
2021-09-03 18:46:00.6320,-0.1,0.07,0.1,0.15
2021-09-03 18:46:00.6420,-0.08,0.06,0.11,0.14
2021-09-03 18:46:00.6520,0.01,0.0,0.14,0.14
2021-09-03 18:46:00.6700,0.13,0.03,0.08,0.15
2021-09-03 18:46:00.6730,0.14,0.04,0.08,0.16
2021-09-03 18:46:00.6810,0.11,-0.04,0.0,0.11
2021-09-03 18:46:00.6920,0.08,-0.08,-0.03,0.11
2021-09-03 18:46:00.7020,0.07,0.05,-0.04,0.09
2021-09-03 18:46:00.7110,0.02,0.06,0.01,0.06
2021-09-03 18:46:00.7210,0.02,0.05,0.04,0.06
2021-09-03 18:46:00.7310,0.02,0.04,0.05,0.06
2021-09-03 18:46:00.7410,-0.06,0.01,0.03,0.06
2021-09-03 18:46:00.7520,-0.11,-0.01,0.0,0.11
2021-09-03 18:46:00.7710,-0.08,0.0,0.03,0.08
2021-09-03 18:46:00.7740,-0.03,0.1,0.08,0.13
2021-09-03 18:46:00.7810,0.02,0.06,0.08,0.1
2021-09-03 18:46:00.7910,0.02,-0.02,0.03,0.04
2021-09-03 18:46:00.8010,-0.03,-0.02,0.0,0.03
2021-09-03 18:46:00.8110,-0.02,-0.03,-0.04,0.05
2021-09-03 18:46:00.8210,0.04,0.0,-0.04,0.05
2021-09-03 18:46:00.8310,0.06,0.01,-0.08,0.1
2021-09-03 18:46:00.8410,0.07,0.01,-0.07,0.09
2021-09-03 18:46:00.8510,0.0,0.06,0.02,0.06
2021-09-03 18:46:00.8710,-0.11,0.03,0.09,0.14
2021-09-03 18:46:00.8740,-0.15,0.08,0.13,0.21
2021-09-03 18:46:00.8810,-0.14,0.05,0.13,0.19
2021-09-03 18:46:00.8910,-0.1,0.0,0.08,0.12
2021-09-03 18:46:00.9010,0.01,-0.02,0.05,0.05
2021-09-03 18:46:00.9110,0.1,0.07,0.08,0.14
2021-09-03 18:46:00.9210,0.09,0.1,0.09,0.16
2021-09-03 18:46:00.9310,0.02,0.02,0.08,0.08
2021-09-03 18:46:00.9410,-0.03,-0.06,0.09,0.11
2021-09-03 18:46:00.9510,0.04,-0.02,0.07,0.08
2021-09-03 18:46:00.9680,0.13,0.03,0.06,0.14
2021-09-03 18:46:00.9710,0.14,-0.01,0.08,0.16
2021-09-03 18:46:00.9800,0.12,-0.01,0.13,0.17
2021-09-03 18:46:00.9910,0.13,-0.03,0.11,0.17
2021-09-03 18:46:01.0000,0.13,0.02,0.09,0.15
2021-09-03 18:46:01.0110,0.06,0.06,0.06,0.1
2021-09-03 18:46:01.0210,0.02,0.01,0.01,0.02
2021-09-03 18:46:01.0310,0.03,0.01,0.04,0.05
2021-09-03 18:46:01.0410,0.1,0.1,0.07,0.15
2021-09-03 18:46:01.0510,0.06,0.13,0.06,0.15
2021-09-03 18:46:01.0690,-0.02,0.12,-0.01,0.12
2021-09-03 18:46:01.0720,-0.08,0.08,-0.07,0.13
2021-09-03 18:46:01.0800,-0.03,-0.04,-0.09,0.1
2021-09-03 18:46:01.0900,0.04,-0.1,-0.25,0.27
2021-09-03 18:46:01.1000,-0.04,-0.07,-0.42,0.42
2021-09-03 18:46:01.1100,-0.2,-0.06,-0.52,0.56
2021-09-03 18:46:01.1200,-0.25,-0.03,-0.46,0.52
2021-09-03 18:46:01.1300,-0.18,0.01,-0.34,0.38
2021-09-03 18:46:01.1400,-0.17,-0.01,-0.26,0.31
2021-09-03 18:46:01.1510,-0.26,-0.05,-0.3,0.4
2021-09-03 18:46:01.1670,-0.31,0.0,-0.28,0.41
2021-09-03 18:46:01.1710,-0.24,0.1,-0.24,0.35
2021-09-03 18:46:01.1800,-0.08,-0.01,-0.17,0.18
2021-09-03 18:46:01.1900,0.01,-0.17,-0.23,0.28
2021-09-03 18:46:01.2000,0.03,-0.01,-0.21,0.21
2021-09-03 18:46:01.2100,-0.09,0.18,-0.18,0.26
2021-09-03 18:46:01.2200,-0.23,0.08,-0.17,0.29
2021-09-03 18:46:01.2300,-0.22,0.03,-0.18,0.28
2021-09-03 18:46:01.2400,-0.13,0.07,-0.15,0.21
2021-09-03 18:46:01.2500,0.05,0.05,-0.09,0.11
2021-09-03 18:46:01.2670,0.08,0.03,-0.08,0.11
2021-09-03 18:46:01.2710,0.03,0.01,-0.11,0.11
2021-09-03 18:46:01.2790,0.02,0.01,-0.1,0.1
2021-09-03 18:46:01.2900,0.01,0.02,-0.06,0.06
2021-09-03 18:46:01.3000,0.0,0.02,-0.07,0.07
2021-09-03 18:46:01.3100,0.01,0.02,-0.06,0.06
2021-09-03 18:46:01.3200,-0.03,0.05,-0.08,0.09
2021-09-03 18:46:01.3300,-0.09,0.11,-0.01,0.14
2021-09-03 18:46:01.3400,-0.1,0.05,-0.02,0.11
2021-09-03 18:46:01.3500,-0.14,0.01,-0.05,0.14
2021-09-03 18:46:01.3670,-0.08,0.0,-0.13,0.15
2021-09-03 18:46:01.3710,0.03,0.05,-0.13,0.14
2021-09-03 18:46:01.3790,0.06,0.09,-0.12,0.16
2021-09-03 18:46:01.3890,0.05,0.05,-0.17,0.18
2021-09-03 18:46:01.4000,-0.06,0.04,-0.21,0.22
2021-09-03 18:46:01.4090,-0.14,-0.03,-0.2,0.24
2021-09-03 18:46:01.4200,-0.1,-0.08,-0.14,0.18
2021-09-03 18:46:01.4300,-0.09,0.01,-0.1,0.13
2021-09-03 18:46:01.4400,-0.13,0.02,-0.12,0.17
2021-09-03 18:46:01.4500,-0.18,-0.04,-0.17,0.25
2021-09-03 18:46:01.4680,-0.18,0.0,-0.11,0.21
2021-09-03 18:46:01.4710,-0.16,0.02,-0.09,0.18
2021-09-03 18:46:01.4790,-0.12,0.03,-0.14,0.18
2021-09-03 18:46:01.4890,-0.06,0.06,-0.13,0.15
2021-09-03 18:46:01.4990,-0.03,0.03,-0.16,0.16
2021-09-03 18:46:01.5090,-0.03,0.01,-0.16,0.16
2021-09-03 18:46:01.5190,-0.04,0.04,-0.14,0.15
2021-09-03 18:46:01.5290,-0.11,0.02,-0.15,0.18
2021-09-03 18:46:01.5390,-0.15,-0.01,-0.19,0.24
2021-09-03 18:46:01.5490,-0.14,0.0,-0.17,0.22
2021-09-03 18:46:01.5660,-0.11,0.0,-0.16,0.19
2021-09-03 18:46:01.5700,-0.09,0.04,-0.11,0.14
2021-09-03 18:46:01.5790,-0.08,0.04,-0.05,0.1
2021-09-03 18:46:01.5890,-0.03,-0.05,-0.07,0.09
2021-09-03 18:46:01.5990,0.0,-0.01,-0.08,0.08
2021-09-03 18:46:01.6090,-0.01,0.0,-0.11,0.11
2021-09-03 18:46:01.6190,-0.08,-0.07,-0.11,0.15
2021-09-03 18:46:01.6290,-0.09,0.01,-0.14,0.16
2021-09-03 18:46:01.6390,-0.11,0.09,-0.12,0.18
2021-09-03 18:46:01.6490,-0.09,0.06,-0.09,0.14
2021-09-03 18:46:01.6680,-0.06,0.09,-0.02,0.1
2021-09-03 18:46:01.6710,-0.03,0.07,-0.02,0.07
2021-09-03 18:46:01.6780,-0.08,0.04,-0.1,0.13
2021-09-03 18:46:01.6880,-0.12,0.04,-0.14,0.18
2021-09-03 18:46:01.6990,-0.12,-0.04,-0.15,0.19
2021-09-03 18:46:01.7090,-0.04,-0.03,-0.12,0.13
2021-09-03 18:46:01.7190,-0.01,0.02,-0.06,0.06
2021-09-03 18:46:01.7280,-0.04,0.0,-0.07,0.08
2021-09-03 18:46:01.7390,-0.03,0.02,-0.07,0.07
2021-09-03 18:46:01.7490,0.01,0.04,-0.04,0.05
2021-09-03 18:46:01.7650,-0.02,0.0,-0.08,0.08
2021-09-03 18:46:01.7680,-0.04,0.0,-0.05,0.06
2021-09-03 18:46:01.7780,0.03,0.01,-0.03,0.04
2021-09-03 18:46:01.7880,0.14,-0.02,-0.03,0.14
2021-09-03 18:46:01.7980,0.13,-0.02,-0.07,0.14
2021-09-03 18:46:01.8080,0.06,0.02,-0.05,0.08
2021-09-03 18:46:01.8190,0.03,0.03,-0.11,0.11
2021-09-03 18:46:01.8280,-0.03,0.01,-0.1,0.1
2021-09-03 18:46:01.8380,-0.04,-0.02,-0.09,0.1
2021-09-03 18:46:01.8480,-0.03,0.02,-0.06,0.06
2021-09-03 18:46:01.8660,-0.03,0.1,0.01,0.1
2021-09-03 18:46:01.8700,-0.02,0.01,-0.03,0.03
2021-09-03 18:46:01.8780,-0.04,-0.02,-0.01,0.04
2021-09-03 18:46:01.8880,-0.04,0.05,0.04,0.07
2021-09-03 18:46:01.8980,-0.03,0.03,0.01,0.04
2021-09-03 18:46:01.9080,-0.06,0.02,0.01,0.06
2021-09-03 18:46:01.9180,-0.01,0.01,-0.02,0.02
2021-09-03 18:46:01.9280,0.0,-0.01,-0.08,0.08
2021-09-03 18:46:01.9380,-0.01,0.02,-0.08,0.08
2021-09-03 18:46:01.9480,-0.04,0.05,-0.08,0.1
2021-09-03 18:46:01.9660,-0.06,0.01,-0.14,0.15
2021-09-03 18:46:01.9690,-0.11,0.09,-0.09,0.16
2021-09-03 18:46:01.9780,-0.09,0.07,-0.03,0.11
2021-09-03 18:46:01.9880,0.0,-0.08,-0.03,0.08
2021-09-03 18:46:01.9980,0.01,-0.04,-0.01,0.04
2021-09-03 18:46:02.0070,0.01,-0.01,-0.05,0.05
2021-09-03 18:46:02.0180,0.0,-0.07,-0.09,0.11
2021-09-03 18:46:02.0280,-0.08,0.04,-0.07,0.11
2021-09-03 18:46:02.0380,-0.12,0.02,-0.04,0.12
2021-09-03 18:46:02.0480,-0.07,0.05,0.01,0.08
2021-09-03 18:46:02.0640,-0.03,0.05,0.03,0.06
2021-09-03 18:46:02.0680,0.01,0.05,-0.04,0.06
2021-09-03 18:46:02.0780,-0.03,0.05,-0.06,0.08
2021-09-03 18:46:02.0880,-0.08,0.04,-0.05,0.1
2021-09-03 18:46:02.0980,-0.06,0.05,-0.03,0.08
2021-09-03 18:46:02.1070,-0.03,0.04,-0.04,0.06
2021-09-03 18:46:02.1170,0.05,0.04,-0.08,0.1
2021-09-03 18:46:02.1270,0.03,0.05,-0.07,0.09
2021-09-03 18:46:02.1380,-0.02,0.01,-0.05,0.05
2021-09-03 18:46:02.1470,-0.05,0.02,0.02,0.05
2021-09-03 18:46:02.1650,-0.03,0.03,0.04,0.05
2021-09-03 18:46:02.1680,0.02,-0.03,-0.02,0.04
2021-09-03 18:46:02.1770,0.02,-0.02,-0.04,0.04
2021-09-03 18:46:02.1870,0.02,0.03,-0.1,0.1
2021-09-03 18:46:02.1980,0.01,-0.01,-0.12,0.12
2021-09-03 18:46:02.2070,-0.02,0.0,-0.08,0.08
2021-09-03 18:46:02.2170,-0.02,0.02,-0.05,0.05
2021-09-03 18:46:02.2270,0.0,0.05,-0.02,0.05
2021-09-03 18:46:02.2370,-0.01,0.05,-0.05,0.07
2021-09-03 18:46:02.2470,-0.03,0.05,-0.07,0.09
2021-09-03 18:46:02.2650,-0.08,0.01,-0.09,0.12
2021-09-03 18:46:02.2690,-0.04,0.02,-0.09,0.1
2021-09-03 18:46:02.2770,-0.02,0.01,-0.06,0.06
2021-09-03 18:46:02.2870,-0.01,0.02,-0.05,0.05
2021-09-03 18:46:02.2970,-0.03,0.0,-0.08,0.08
2021-09-03 18:46:02.3070,-0.05,0.01,-0.13,0.13
2021-09-03 18:46:02.3170,-0.05,0.02,-0.11,0.12
2021-09-03 18:46:02.3260,-0.05,-0.02,-0.11,0.12
2021-09-03 18:46:02.3370,0.01,0.02,-0.1,0.1
2021-09-03 18:46:02.3470,0.0,0.05,-0.06,0.07
2021-09-03 18:46:02.3640,-0.03,0.03,-0.07,0.08
2021-09-03 18:46:02.3680,-0.07,-0.01,-0.09,0.11
2021-09-03 18:46:02.3770,-0.08,0.01,-0.04,0.09
2021-09-03 18:46:02.3860,-0.02,0.04,-0.01,0.04
2021-09-03 18:46:02.3960,0.0,0.03,-0.02,0.03
2021-09-03 18:46:02.4070,-0.02,0.05,-0.04,0.06
2021-09-03 18:46:02.4160,-0.04,0.13,-0.02,0.13
2021-09-03 18:46:02.4260,-0.03,0.2,-0.04,0.2
2021-09-03 18:46:02.4370,-0.07,0.16,-0.07,0.18
2021-09-03 18:46:02.4460,-0.13,0.06,-0.11,0.18
2021-09-03 18:46:02.4620,-0.12,-0.04,-0.16,0.2
2021-09-03 18:46:02.4670,-0.13,-0.07,-0.16,0.21
2021-09-03 18:46:02.4760,-0.07,-0.07,-0.1,0.14
2021-09-03 18:46:02.4860,0.01,-0.08,-0.04,0.09
2021-09-03 18:46:02.4970,0.06,-0.12,-0.02,0.13
2021-09-03 18:46:02.5060,0.15,-0.1,-0.1,0.2
2021-09-03 18:46:02.5160,0.07,-0.1,-0.07,0.14
2021-09-03 18:46:02.5260,0.06,-0.05,0.04,0.08
2021-09-03 18:46:02.5370,0.04,-0.01,0.15,0.15
2021-09-03 18:46:02.5460,0.02,0.0,0.18,0.18
2021-09-03 18:46:02.5640,0.06,0.08,0.26,0.27
2021-09-03 18:46:02.5680,0.15,0.11,0.25,0.31
2021-09-03 18:46:02.5760,0.12,0.08,0.14,0.2
2021-09-03 18:46:02.5860,0.04,0.04,0.02,0.06
2021-09-03 18:46:02.5960,-0.01,-0.01,-0.06,0.06
2021-09-03 18:46:02.6060,-0.06,-0.02,-0.14,0.15
2021-09-03 18:46:02.6160,-0.06,0.03,-0.17,0.18
2021-09-03 18:46:02.6260,-0.05,0.05,-0.14,0.15
2021-09-03 18:46:02.6360,-0.07,0.03,-0.13,0.15
2021-09-03 18:46:02.6460,-0.09,0.01,-0.15,0.17
2021-09-03 18:46:02.6640,-0.11,0.05,-0.07,0.13
2021-09-03 18:46:02.6680,-0.09,0.04,-0.06,0.11
2021-09-03 18:46:02.6750,-0.07,0.02,-0.03,0.07
2021-09-03 18:46:02.6850,-0.02,0.02,-0.03,0.04
2021-09-03 18:46:02.6960,-0.01,-0.05,-0.06,0.07
2021-09-03 18:46:02.7060,0.01,-0.04,-0.08,0.09
2021-09-03 18:46:02.7150,0.01,-0.03,-0.07,0.07
2021-09-03 18:46:02.7260,-0.03,0.01,-0.06,0.06
2021-09-03 18:46:02.7360,0.0,0.0,-0.03,0.03
2021-09-03 18:46:02.7460,0.06,0.0,-0.02,0.06
2021-09-03 18:46:02.7610,0.05,0.02,0.02,0.05
2021-09-03 18:46:02.7650,0.03,0.04,0.04,0.06
2021-09-03 18:46:02.7750,0.03,0.08,0.09,0.12
2021-09-03 18:46:02.7860,0.08,0.07,0.11,0.15
2021-09-03 18:46:02.7950,0.13,-0.03,0.11,0.17
2021-09-03 18:46:02.8050,0.13,-0.02,0.08,0.15
2021-09-03 18:46:02.8150,0.04,-0.02,0.03,0.05
2021-09-03 18:46:02.8260,-0.04,0.0,-0.01,0.04
2021-09-03 18:46:02.8360,-0.09,0.02,-0.03,0.09
2021-09-03 18:46:02.8460,-0.06,-0.03,-0.04,0.07
2021-09-03 18:46:02.8630,-0.02,-0.03,-0.04,0.05
2021-09-03 18:46:02.8670,-0.01,0.03,-0.02,0.03
2021-09-03 18:46:02.8750,-0.05,0.03,0.01,0.05
2021-09-03 18:46:02.8850,-0.07,0.06,-0.04,0.1
2021-09-03 18:46:02.8950,-0.07,0.03,-0.05,0.09
2021-09-03 18:46:02.9050,-0.06,0.03,-0.03,0.07
2021-09-03 18:46:02.9150,-0.02,0.02,-0.01,0.03
2021-09-03 18:46:02.9250,-0.01,-0.03,-0.07,0.07
2021-09-03 18:46:02.9350,-0.05,0.06,-0.07,0.1
2021-09-03 18:46:02.9450,-0.08,0.04,-0.05,0.1
2021-09-03 18:46:02.9620,-0.07,0.02,-0.04,0.08
2021-09-03 18:46:02.9660,-0.08,0.03,-0.02,0.08
2021-09-03 18:46:02.9750,-0.07,0.01,-0.01,0.07
2021-09-03 18:46:02.9850,-0.02,0.01,-0.01,0.02
2021-09-03 18:46:02.9950,-0.04,-0.01,0.0,0.04
2021-09-03 18:46:03.0050,-0.05,-0.01,-0.01,0.05
2021-09-03 18:46:03.0150,-0.07,0.02,0.01,0.07
2021-09-03 18:46:03.0250,-0.06,0.03,0.02,0.06
2021-09-03 18:46:03.0350,0.01,-0.02,0.03,0.03
2021-09-03 18:46:03.0450,0.01,-0.08,0.0,0.08
2021-09-03 18:46:03.0620,0.01,-0.02,0.0,0.02
2021-09-03 18:46:03.0650,0.01,0.01,-0.03,0.03
2021-09-03 18:46:03.0740,-0.02,0.0,-0.03,0.03
2021-09-03 18:46:03.0850,-0.03,-0.01,-0.02,0.03
2021-09-03 18:46:03.0950,-0.01,0.0,0.02,0.02
2021-09-03 18:46:03.1040,0.02,0.02,0.02,0.03
2021-09-03 18:46:03.1150,0.04,0.02,0.0,0.04
2021-09-03 18:46:03.1250,0.0,0.04,0.01,0.04
2021-09-03 18:46:03.1350,-0.01,0.06,0.08,0.1
2021-09-03 18:46:03.1450,-0.01,0.04,0.09,0.09
2021-09-03 18:46:03.1600,0.01,0.01,0.09,0.09
2021-09-03 18:46:03.1650,0.05,-0.05,0.0,0.07
2021-09-03 18:46:03.1750,0.01,-0.04,-0.04,0.05
2021-09-03 18:46:03.1840,0.01,-0.01,-0.04,0.04
2021-09-03 18:46:03.1940,0.02,-0.02,-0.07,0.07
2021-09-03 18:46:03.2040,-0.01,0.04,-0.03,0.05
2021-09-03 18:46:03.2140,-0.01,0.05,-0.03,0.05
2021-09-03 18:46:03.2240,-0.03,-0.01,-0.01,0.03
2021-09-03 18:46:03.2340,-0.03,0.02,0.01,0.03
2021-09-03 18:46:03.2440,-0.01,0.01,0.01,0.01
2021-09-03 18:46:03.2620,0.0,0.03,0.04,0.05
2021-09-03 18:46:03.2650,-0.02,0.01,0.01,0.02
2021-09-03 18:46:03.2740,-0.07,-0.01,-0.01,0.07
2021-09-03 18:46:03.2840,-0.08,0.01,0.01,0.08
2021-09-03 18:46:03.2940,-0.05,0.0,0.0,0.05
2021-09-03 18:46:03.3040,-0.01,-0.01,-0.03,0.03
2021-09-03 18:46:03.3140,0.03,0.02,-0.04,0.05
2021-09-03 18:46:03.3240,0.02,0.01,-0.04,0.04
2021-09-03 18:46:03.3340,0.02,0.0,-0.01,0.02
2021-09-03 18:46:03.3440,0.01,-0.02,-0.03,0.03
2021-09-03 18:46:03.3620,-0.03,0.0,-0.09,0.09
2021-09-03 18:46:03.3650,-0.06,0.06,-0.11,0.13
2021-09-03 18:46:03.3740,-0.09,0.03,-0.08,0.12
2021-09-03 18:46:03.3840,-0.08,-0.01,-0.06,0.1
2021-09-03 18:46:03.3940,-0.05,0.03,0.0,0.05
2021-09-03 18:46:03.4040,-0.01,0.04,-0.01,0.04
2021-09-03 18:46:03.4140,-0.02,-0.01,-0.07,0.07
2021-09-03 18:46:03.4230,-0.02,-0.04,-0.13,0.13
2021-09-03 18:46:03.4340,0.01,-0.06,-0.11,0.12
2021-09-03 18:46:03.4430,-0.01,-0.02,-0.12,0.12
2021-09-03 18:46:03.4590,-0.07,-0.03,-0.06,0.09
2021-09-03 18:46:03.4630,-0.04,-0.02,-0.03,0.05
2021-09-03 18:46:03.4740,0.0,-0.02,-0.03,0.03
2021-09-03 18:46:03.4840,0.06,0.01,0.0,0.06
2021-09-03 18:46:03.4930,0.09,0.03,0.01,0.09
2021-09-03 18:46:03.5040,0.06,0.02,0.0,0.06
2021-09-03 18:46:03.5140,0.04,0.0,0.02,0.04
2021-09-03 18:46:03.5230,0.03,0.02,0.04,0.05
2021-09-03 18:46:03.5340,0.01,0.03,0.05,0.05
2021-09-03 18:46:03.5430,0.06,0.01,0.05,0.07
2021-09-03 18:46:03.5600,0.07,0.0,0.02,0.07
2021-09-03 18:46:03.5640,0.05,0.01,0.04,0.06
2021-09-03 18:46:03.5730,0.07,0.03,0.07,0.1
2021-09-03 18:46:03.5830,0.12,0.0,0.08,0.14
2021-09-03 18:46:03.5930,0.08,0.0,0.04,0.08
2021-09-03 18:46:03.6030,0.04,0.02,0.03,0.05
2021-09-03 18:46:03.6130,0.01,0.02,0.04,0.04
2021-09-03 18:46:03.6230,0.0,0.01,0.01,0.01
2021-09-03 18:46:03.6330,0.0,0.02,0.02,0.02
2021-09-03 18:46:03.6430,0.0,0.01,0.02,0.02
2021-09-03 18:46:03.6590,0.02,-0.03,0.01,0.03
2021-09-03 18:46:03.6630,0.03,-0.01,0.01,0.03
2021-09-03 18:46:03.6730,0.01,0.0,-0.01,0.01
2021-09-03 18:46:03.6830,-0.02,0.05,-0.03,0.06
2021-09-03 18:46:03.6930,-0.04,0.04,0.0,0.05
2021-09-03 18:46:03.7030,-0.03,-0.02,0.01,0.03
2021-09-03 18:46:03.7130,0.03,-0.05,-0.02,0.06
2021-09-03 18:46:03.7230,0.04,-0.09,-0.05,0.11
2021-09-03 18:46:03.7330,0.06,-0.06,-0.06,0.1
2021-09-03 18:46:03.7430,-0.01,0.0,-0.07,0.07
2021-09-03 18:46:03.7590,-0.06,0.02,-0.02,0.06
2021-09-03 18:46:03.7630,-0.02,0.0,0.03,0.03
2021-09-03 18:46:03.7730,0.0,0.01,0.11,0.11
2021-09-03 18:46:03.7830,-0.01,0.0,0.06,0.06
2021-09-03 18:46:03.7930,-0.03,0.03,0.03,0.05
2021-09-03 18:46:03.8030,-0.04,0.08,0.04,0.09
2021-09-03 18:46:03.8130,-0.02,0.03,0.07,0.07
2021-09-03 18:46:03.8220,-0.03,0.02,0.1,0.1
2021-09-03 18:46:03.8320,0.0,0.03,0.1,0.1
2021-09-03 18:46:03.8420,-0.01,0.03,0.11,0.11
2021-09-03 18:46:03.8570,-0.01,0.02,0.1,0.1
2021-09-03 18:46:03.8620,0.06,0.0,0.1,0.11
2021-09-03 18:46:03.8720,0.07,0.0,0.1,0.12
2021-09-03 18:46:03.8830,0.04,-0.02,0.1,0.1
2021-09-03 18:46:03.8920,0.05,-0.06,0.1,0.12
2021-09-03 18:46:03.9030,0.07,-0.04,0.11,0.13
2021-09-03 18:46:03.9120,0.1,-0.04,0.13,0.16
2021-09-03 18:46:03.9230,0.16,-0.06,0.1,0.19
2021-09-03 18:46:03.9330,0.12,0.01,0.02,0.12
2021-09-03 18:46:03.9420,-0.01,0.02,-0.01,0.02
2021-09-03 18:46:03.9590,-0.06,0.02,0.07,0.09
2021-09-03 18:46:03.9620,0.02,0.04,0.08,0.09
2021-09-03 18:46:03.9720,0.03,0.05,0.05,0.07
2021-09-03 18:46:03.9820,-0.02,0.06,0.05,0.08
2021-09-03 18:46:03.9920,-0.01,0.04,0.03,0.05
2021-09-03 18:46:04.0020,-0.01,-0.01,0.03,0.03
2021-09-03 18:46:04.0120,-0.07,-0.01,0.05,0.08
2021-09-03 18:46:04.0220,-0.06,0.0,0.05,0.07
2021-09-03 18:46:04.0320,0.04,-0.01,0.07,0.08
2021-09-03 18:46:04.0420,0.09,-0.03,0.09,0.13
2021-09-03 18:46:04.0590,0.09,-0.02,0.11,0.14
2021-09-03 18:46:04.0630,0.09,0.0,0.08,0.12
2021-09-03 18:46:04.0720,0.04,0.0,0.09,0.09
2021-09-03 18:46:04.0810,0.04,0.0,0.09,0.09
2021-09-03 18:46:04.0920,0.05,0.01,0.05,0.07
2021-09-03 18:46:04.1020,0.02,0.01,0.03,0.03
2021-09-03 18:46:04.1120,0.01,0.02,0.03,0.03
2021-09-03 18:46:04.1220,-0.04,0.02,0.0,0.04
2021-09-03 18:46:04.1320,-0.06,0.02,-0.01,0.06
2021-09-03 18:46:04.1420,-0.04,0.03,0.02,0.05
2021-09-03 18:46:04.1600,-0.02,0.02,0.01,0.03
2021-09-03 18:46:04.1640,0.01,0.01,-0.02,0.02
2021-09-03 18:46:04.1710,0.02,-0.01,-0.05,0.05
2021-09-03 18:46:04.1810,0.0,-0.01,-0.05,0.05
2021-09-03 18:46:04.1920,-0.02,0.0,-0.02,0.02
2021-09-03 18:46:04.2020,-0.05,-0.02,0.01,0.05
2021-09-03 18:46:04.2120,-0.03,-0.01,0.0,0.03
2021-09-03 18:46:04.2220,-0.01,0.01,0.01,0.01
2021-09-03 18:46:04.2320,-0.02,0.01,0.0,0.02
2021-09-03 18:46:04.2410,-0.02,0.03,0.01,0.03
2021-09-03 18:46:04.2580,-0.01,0.02,0.0,0.02
2021-09-03 18:46:04.2620,0.01,0.02,0.01,0.02
2021-09-03 18:46:04.2720,0.03,0.02,0.03,0.04
2021-09-03 18:46:04.2810,0.03,0.0,0.03,0.04
2021-09-03 18:46:04.2910,0.03,-0.03,0.03,0.05
2021-09-03 18:46:04.3010,0.01,0.02,0.05,0.05
2021-09-03 18:46:04.3110,0.01,0.02,0.06,0.06
2021-09-03 18:46:04.3220,0.05,0.01,0.03,0.05
2021-09-03 18:46:04.3310,0.05,-0.02,0.0,0.05
2021-09-03 18:46:04.3420,0.03,0.0,-0.02,0.03
2021-09-03 18:46:04.3600,0.0,-0.01,-0.02,0.02
2021-09-03 18:46:04.3640,0.0,0.01,0.0,0.01
2021-09-03 18:46:04.3710,0.0,0.03,0.0,0.03
2021-09-03 18:46:04.3810,0.0,0.01,-0.01,0.01
2021-09-03 18:46:04.3910,0.0,0.0,-0.05,0.05
2021-09-03 18:46:04.4010,-0.01,0.01,-0.07,0.07
2021-09-03 18:46:04.4110,-0.02,0.02,-0.03,0.04
2021-09-03 18:46:04.4210,-0.01,0.0,-0.03,0.03
2021-09-03 18:46:04.4310,0.0,0.0,-0.03,0.03
2021-09-03 18:46:04.4410,0.01,0.01,0.0,0.01
2021-09-03 18:46:04.4580,0.0,-0.01,0.0,0.01
2021-09-03 18:46:04.4620,0.02,0.02,0.0,0.02
2021-09-03 18:46:04.4710,0.01,0.01,-0.01,0.01
2021-09-03 18:46:04.4810,-0.01,0.02,-0.02,0.03
2021-09-03 18:46:04.4910,0.03,0.02,0.01,0.03
2021-09-03 18:46:04.5010,0.03,0.01,0.02,0.03
2021-09-03 18:46:04.5110,0.02,0.01,0.01,0.02
2021-09-03 18:46:04.5210,0.02,0.01,0.03,0.03
2021-09-03 18:46:04.5310,0.02,0.03,0.03,0.04
2021-09-03 18:46:04.5410,0.02,0.06,0.03,0.06
2021-09-03 18:46:04.5560,0.03,0.0,0.01,0.03
2021-09-03 18:46:04.5600,0.02,-0.02,0.01,0.03
2021-09-03 18:46:04.5710,0.01,-0.01,0.0,0.01
2021-09-03 18:46:04.5800,0.02,0.0,0.0,0.02
2021-09-03 18:46:04.5900,0.01,-0.02,-0.01,0.02
2021-09-03 18:46:04.6000,0.01,0.0,-0.02,0.02
2021-09-03 18:46:04.6110,0.0,0.03,0.02,0.03
2021-09-03 18:46:04.6200,0.0,0.03,0.05,0.05
2021-09-03 18:46:04.6300,0.0,0.05,0.08,0.09
2021-09-03 18:46:04.6410,-0.06,0.12,0.11,0.17
2021-09-03 18:46:04.6580,-0.08,0.02,0.13,0.15
2021-09-03 18:46:04.6620,0.09,-0.03,0.06,0.11
2021-09-03 18:46:04.6700,0.21,-0.01,0.0,0.21
2021-09-03 18:46:04.6800,0.2,-0.05,-0.09,0.22
2021-09-03 18:46:04.6900,0.05,0.01,-0.15,0.15
2021-09-03 18:46:04.7000,-0.15,0.11,-0.08,0.2
2021-09-03 18:46:04.7100,-0.22,-0.04,0.02,0.22
2021-09-03 18:46:04.7200,-0.05,0.01,0.07,0.08
2021-09-03 18:46:04.7300,0.22,0.09,0.12,0.26
2021-09-03 18:46:04.7400,0.39,0.09,0.19,0.44
2021-09-03 18:46:04.7570,0.35,0.06,0.32,0.47
2021-09-03 18:46:04.7610,0.09,0.02,0.37,0.38
2021-09-03 18:46:04.7700,-0.16,0.03,0.23,0.28
2021-09-03 18:46:04.7800,-0.25,0.08,-0.01,0.26
2021-09-03 18:46:04.7900,-0.17,0.0,-0.21,0.27
2021-09-03 18:46:04.8000,-0.06,-0.1,-0.29,0.31
2021-09-03 18:46:04.8100,-0.01,-0.12,-0.36,0.37
2021-09-03 18:46:04.8200,-0.07,-0.04,-0.36,0.36
2021-09-03 18:46:04.8300,-0.18,0.01,-0.29,0.34
2021-09-03 18:46:04.8400,-0.28,-0.03,-0.18,0.33
2021-09-03 18:46:04.8560,-0.24,-0.05,-0.11,0.26
2021-09-03 18:46:04.8610,-0.13,0.02,-0.08,0.15
2021-09-03 18:46:04.8700,0.03,0.04,-0.1,0.11
2021-09-03 18:46:04.8800,0.16,0.02,-0.05,0.16
2021-09-03 18:46:04.8900,0.17,-0.04,0.01,0.17
2021-09-03 18:46:04.9000,0.08,-0.02,0.06,0.1
2021-09-03 18:46:04.9100,-0.04,0.02,0.05,0.06
2021-09-03 18:46:04.9200,-0.09,0.0,0.02,0.09
2021-09-03 18:46:04.9300,-0.02,0.0,-0.02,0.02
2021-09-03 18:46:04.9400,0.11,-0.01,-0.05,0.12
2021-09-03 18:46:04.9570,0.14,-0.04,0.0,0.14
2021-09-03 18:46:04.9610,0.05,-0.03,0.03,0.06
2021-09-03 18:46:04.9690,0.02,0.03,0.11,0.11
2021-09-03 18:46:04.9790,0.01,0.01,0.17,0.17
2021-09-03 18:46:04.9890,0.02,-0.03,0.16,0.16
2021-09-03 18:46:04.9990,0.1,0.01,0.17,0.19
2021-09-03 18:46:05.0090,0.1,0.0,0.18,0.2
2021-09-03 18:46:05.0200,0.01,0.01,0.1,0.1
2021-09-03 18:46:05.0290,-0.02,0.02,0.0,0.02
2021-09-03 18:46:05.0390,0.0,0.03,0.0,0.03
2021-09-03 18:46:05.0550,-0.02,0.05,0.06,0.08
2021-09-03 18:46:05.0590,-0.01,0.01,0.05,0.05
2021-09-03 18:46:05.0690,-0.03,-0.01,0.02,0.03
2021-09-03 18:46:05.0790,-0.15,0.03,-0.02,0.15
2021-09-03 18:46:05.0890,-0.13,0.05,-0.04,0.14
2021-09-03 18:46:05.0990,0.06,0.04,-0.05,0.08
2021-09-03 18:46:05.1090,0.08,-0.04,0.01,0.09
2021-09-03 18:46:05.1190,-0.02,-0.04,0.04,0.06
2021-09-03 18:46:05.1290,-0.08,0.02,0.0,0.08
2021-09-03 18:46:05.1390,-0.05,0.01,-0.01,0.05
2021-09-03 18:46:05.1540,0.0,-0.04,0.02,0.04
2021-09-03 18:46:05.1580,0.04,-0.06,0.02,0.07
2021-09-03 18:46:05.1690,0.0,-0.04,-0.01,0.04
2021-09-03 18:46:05.1790,-0.07,0.01,-0.03,0.07
2021-09-03 18:46:05.1890,-0.06,0.05,-0.03,0.08
2021-09-03 18:46:05.1990,-0.03,0.05,-0.01,0.05
2021-09-03 18:46:05.2090,0.03,0.02,-0.01,0.03
2021-09-03 18:46:05.2190,0.06,0.0,-0.02,0.06
2021-09-03 18:46:05.2290,0.01,-0.02,-0.03,0.03
2021-09-03 18:46:05.2390,-0.04,0.0,-0.02,0.04
2021-09-03 18:46:05.2550,0.03,0.02,-0.02,0.04
2021-09-03 18:46:05.2580,0.03,0.02,0.03,0.04
2021-09-03 18:46:05.2690,0.01,0.01,0.07,0.07
2021-09-03 18:46:05.2780,-0.02,-0.02,0.06,0.06
2021-09-03 18:46:05.2880,-0.07,0.02,0.02,0.07
2021-09-03 18:46:05.2980,-0.08,0.03,-0.04,0.09
2021-09-03 18:46:05.3080,-0.02,-0.02,-0.07,0.07
2021-09-03 18:46:05.3180,0.03,0.0,-0.03,0.04
2021-09-03 18:46:05.3280,0.04,0.0,-0.01,0.04
2021-09-03 18:46:05.3390,0.01,0.02,-0.01,0.02
2021-09-03 18:46:05.3540,-0.06,0.06,0.0,0.08
2021-09-03 18:46:05.3590,-0.09,0.06,0.0,0.1
2021-09-03 18:46:05.3680,-0.01,-0.01,0.03,0.03
2021-09-03 18:46:05.3780,0.08,-0.02,0.04,0.09
2021-09-03 18:46:05.3880,0.08,0.01,0.05,0.09
2021-09-03 18:46:05.3980,0.0,-0.02,0.05,0.05
2021-09-03 18:46:05.4080,-0.05,0.0,0.05,0.07
2021-09-03 18:46:05.4190,-0.01,-0.01,0.03,0.03
2021-09-03 18:46:05.4280,0.09,-0.02,0.01,0.09
2021-09-03 18:46:05.4380,0.08,-0.02,-0.01,0.08
2021-09-03 18:46:05.4550,0.04,0.0,-0.01,0.04
2021-09-03 18:46:05.4580,0.04,-0.03,0.04,0.06
2021-09-03 18:46:05.4680,0.0,0.01,0.08,0.08
2021-09-03 18:46:05.4780,0.04,0.01,0.11,0.11
2021-09-03 18:46:05.4880,0.09,0.02,0.1,0.13
2021-09-03 18:46:05.4980,0.09,0.03,0.08,0.12
2021-09-03 18:46:05.5080,0.09,0.04,0.04,0.1
2021-09-03 18:46:05.5180,0.03,0.04,0.05,0.07
2021-09-03 18:46:05.5280,-0.03,0.02,0.01,0.03
2021-09-03 18:46:05.5380,-0.03,0.01,-0.03,0.04
2021-09-03 18:46:05.5540,-0.09,0.02,-0.05,0.1
2021-09-03 18:46:05.5580,-0.07,0.0,-0.07,0.09
2021-09-03 18:46:05.5680,0.04,-0.02,-0.07,0.08
2021-09-03 18:46:05.5780,0.07,0.0,-0.05,0.08
2021-09-03 18:46:05.5880,0.03,-0.01,-0.01,0.03
2021-09-03 18:46:05.5980,0.01,-0.02,0.03,0.03
2021-09-03 18:46:05.6070,0.01,-0.01,0.05,0.05
2021-09-03 18:46:05.6180,0.0,0.01,0.02,0.02
2021-09-03 18:46:05.6280,0.01,0.02,-0.02,0.03
2021-09-03 18:46:05.6380,-0.01,0.01,-0.01,0.01
2021-09-03 18:46:05.6540,-0.01,0.02,0.02,0.03
2021-09-03 18:46:05.6580,0.01,0.01,0.03,0.03
2021-09-03 18:46:05.6670,0.05,0.0,0.02,0.05
2021-09-03 18:46:05.6770,0.08,0.0,0.06,0.1
2021-09-03 18:46:05.6870,0.07,-0.03,0.05,0.09
2021-09-03 18:46:05.6970,0.06,0.01,0.01,0.06
2021-09-03 18:46:05.7070,0.03,0.01,0.01,0.03
2021-09-03 18:46:05.7180,-0.02,0.03,0.02,0.04
2021-09-03 18:46:05.7270,-0.02,0.03,0.01,0.03
2021-09-03 18:46:05.7370,-0.05,0.0,0.01,0.05
2021-09-03 18:46:05.7530,-0.12,0.01,-0.01,0.12
2021-09-03 18:46:05.7570,-0.1,0.04,-0.08,0.13
2021-09-03 18:46:05.7670,-0.04,0.03,-0.07,0.08
2021-09-03 18:46:05.7770,0.0,0.0,-0.05,0.05
2021-09-03 18:46:05.7870,0.01,0.0,-0.04,0.04
2021-09-03 18:46:05.7970,-0.01,0.02,-0.09,0.09
2021-09-03 18:46:05.8070,-0.04,0.03,-0.09,0.1
2021-09-03 18:46:05.8170,-0.06,0.02,-0.06,0.08
2021-09-03 18:46:05.8270,-0.05,-0.02,-0.08,0.09
2021-09-03 18:46:05.8370,-0.02,-0.01,-0.07,0.07
2021-09-03 18:46:05.8540,-0.01,0.0,-0.04,0.04
2021-09-03 18:46:05.8580,0.0,-0.02,-0.05,0.05
2021-09-03 18:46:05.8670,0.03,0.01,-0.07,0.07
2021-09-03 18:46:05.8770,0.02,0.03,-0.05,0.06
2021-09-03 18:46:05.8870,-0.02,0.03,0.01,0.03
2021-09-03 18:46:05.8970,-0.05,0.02,0.05,0.07
2021-09-03 18:46:05.9060,0.0,0.01,0.07,0.07
2021-09-03 18:46:05.9170,0.06,0.02,0.07,0.09
2021-09-03 18:46:05.9270,0.08,0.02,0.01,0.08
2021-09-03 18:46:05.9370,0.04,0.02,-0.03,0.05
2021-09-03 18:46:05.9520,-0.04,0.01,-0.04,0.05
2021-09-03 18:46:05.9570,-0.08,0.04,-0.04,0.09
2021-09-03 18:46:05.9670,-0.06,0.05,-0.04,0.08
2021-09-03 18:46:05.9760,-0.02,0.03,-0.04,0.05
2021-09-03 18:46:05.9870,0.03,0.02,-0.02,0.04
2021-09-03 18:46:05.9960,0.02,0.0,-0.05,0.05
2021-09-03 18:46:06.0060,-0.01,-0.02,-0.03,0.03
2021-09-03 18:46:06.0170,-0.01,-0.02,0.0,0.02
2021-09-03 18:46:06.0260,0.01,-0.02,-0.01,0.02
2021-09-03 18:46:06.0370,0.04,0.0,-0.01,0.04
2021-09-03 18:46:06.0520,0.05,0.01,-0.02,0.05
2021-09-03 18:46:06.0550,0.01,0.01,-0.02,0.02
2021-09-03 18:46:06.0660,0.0,0.0,-0.07,0.07
2021-09-03 18:46:06.0770,-0.04,-0.01,-0.09,0.09
2021-09-03 18:46:06.0860,-0.05,0.01,-0.07,0.08
2021-09-03 18:46:06.0960,-0.01,0.04,-0.03,0.05
2021-09-03 18:46:06.1060,0.01,0.03,-0.04,0.05
2021-09-03 18:46:06.1160,-0.04,0.01,-0.05,0.06
2021-09-03 18:46:06.1260,-0.04,0.02,-0.02,0.04
2021-09-03 18:46:06.1360,-0.02,0.02,-0.02,0.03
2021-09-03 18:46:06.1500,0.02,-0.01,-0.02,0.03
2021-09-03 18:46:06.1560,0.06,-0.02,-0.06,0.08
2021-09-03 18:46:06.1660,-0.04,-0.02,-0.11,0.11
2021-09-03 18:46:06.1760,-0.07,0.03,-0.08,0.11
2021-09-03 18:46:06.1860,-0.04,0.02,-0.05,0.06
2021-09-03 18:46:06.1960,-0.02,-0.02,-0.02,0.03
2021-09-03 18:46:06.2060,0.02,-0.01,0.02,0.03
2021-09-03 18:46:06.2160,0.07,0.05,0.05,0.09
2021-09-03 18:46:06.2260,0.03,0.07,0.02,0.07
2021-09-03 18:46:06.2360,0.0,0.04,0.01,0.04
2021-09-03 18:46:06.2540,-0.01,-0.01,0.03,0.03
2021-09-03 18:46:06.2570,-0.02,-0.02,0.06,0.06
2021-09-03 18:46:06.2660,0.03,-0.03,0.09,0.09
2021-09-03 18:46:06.2760,0.11,0.01,0.05,0.12
2021-09-03 18:46:06.2860,0.05,0.01,-0.03,0.05
2021-09-03 18:46:06.2960,-0.02,0.02,-0.02,0.03
2021-09-03 18:46:06.3060,-0.05,0.0,-0.02,0.05
2021-09-03 18:46:06.3160,-0.02,0.04,0.02,0.04
2021-09-03 18:46:06.3260,0.0,0.06,-0.02,0.06
2021-09-03 18:46:06.3360,-0.02,0.05,-0.07,0.08
2021-09-03 18:46:06.3530,-0.03,0.05,-0.09,0.1
2021-09-03 18:46:06.3570,-0.08,0.01,-0.07,0.1
2021-09-03 18:46:06.3650,-0.11,-0.02,-0.03,0.11
2021-09-03 18:46:06.3750,-0.09,0.03,-0.02,0.09
2021-09-03 18:46:06.3860,-0.06,0.02,-0.06,0.08
2021-09-03 18:46:06.3950,-0.04,-0.02,-0.11,0.11
2021-09-03 18:46:06.4050,-0.05,-0.01,-0.1,0.11
2021-09-03 18:46:06.4160,-0.06,-0.01,-0.07,0.09
2021-09-03 18:46:06.4250,-0.07,-0.02,-0.04,0.08
2021-09-03 18:46:06.4360,-0.03,0.01,0.01,0.03
2021-09-03 18:46:06.4540,0.01,0.02,0.04,0.04
2021-09-03 18:46:06.4570,0.05,0.02,0.01,0.05
2021-09-03 18:46:06.4650,0.02,0.06,0.03,0.06
2021-09-03 18:46:06.4750,0.0,0.05,0.04,0.06
2021-09-03 18:46:06.4850,-0.01,0.01,0.03,0.03
2021-09-03 18:46:06.4950,0.0,0.0,-0.01,0.01
2021-09-03 18:46:06.5050,0.0,-0.01,-0.02,0.02
2021-09-03 18:46:06.5150,0.01,0.02,0.0,0.02
2021-09-03 18:46:06.5250,0.04,0.0,0.0,0.04
2021-09-03 18:46:06.5350,0.07,-0.01,0.0,0.07
2021-09-03 18:46:06.5530,-0.02,0.0,0.0,0.02
2021-09-03 18:46:06.5570,-0.08,-0.02,0.01,0.08
2021-09-03 18:46:06.5650,-0.03,0.02,0.02,0.04
2021-09-03 18:46:06.5750,-0.01,0.01,0.01,0.01
2021-09-03 18:46:06.5850,0.02,-0.01,-0.03,0.03
2021-09-03 18:46:06.5950,0.04,0.04,-0.04,0.06
2021-09-03 18:46:06.6050,-0.04,0.01,-0.05,0.06
2021-09-03 18:46:06.6150,-0.09,-0.01,-0.03,0.09
2021-09-03 18:46:06.6250,-0.06,0.01,-0.03,0.06
2021-09-03 18:46:06.6350,0.01,0.04,-0.04,0.05
2021-09-03 18:46:06.6540,0.02,0.02,-0.03,0.04
2021-09-03 18:46:06.6570,-0.02,0.01,-0.01,0.02
2021-09-03 18:46:06.6640,-0.04,0.0,0.01,0.04
2021-09-03 18:46:06.6750,-0.06,-0.05,-0.01,0.07
2021-09-03 18:46:06.6850,-0.03,0.01,0.03,0.04
2021-09-03 18:46:06.6950,0.02,0.04,0.03,0.05
2021-09-03 18:46:06.7050,0.05,0.02,0.0,0.05
2021-09-03 18:46:06.7150,0.0,-0.01,-0.01,0.01
2021-09-03 18:46:06.7250,-0.03,0.01,0.01,0.03
2021-09-03 18:46:06.7350,-0.03,0.0,0.05,0.05
2021-09-03 18:46:06.7520,0.0,0.02,0.06,0.06
2021-09-03 18:46:06.7550,0.02,0.05,0.04,0.06
2021-09-03 18:46:06.7640,0.01,0.04,0.05,0.06
2021-09-03 18:46:06.7740,-0.03,0.0,0.04,0.05
2021-09-03 18:46:06.7840,-0.04,-0.01,0.03,0.05
2021-09-03 18:46:06.7940,-0.02,0.01,0.0,0.02
2021-09-03 18:46:06.8050,-0.01,0.03,-0.01,0.03
2021-09-03 18:46:06.8140,-0.03,0.01,-0.01,0.03
2021-09-03 18:46:06.8240,-0.04,0.01,0.0,0.04
2021-09-03 18:46:06.8340,-0.04,-0.01,0.01,0.04
2021-09-03 18:46:06.8490,-0.03,-0.01,-0.03,0.04
2021-09-03 18:46:06.8540,-0.04,0.0,-0.04,0.05
2021-09-03 18:46:06.8640,-0.04,-0.03,-0.05,0.07
2021-09-03 18:46:06.8740,-0.03,-0.01,-0.08,0.08
2021-09-03 18:46:06.8840,0.02,0.03,-0.05,0.06
2021-09-03 18:46:06.8940,0.03,-0.04,-0.09,0.1
2021-09-03 18:46:06.9040,-0.02,-0.01,-0.1,0.1
2021-09-03 18:46:06.9140,-0.04,0.04,-0.08,0.09
2021-09-03 18:46:06.9240,-0.04,0.01,-0.04,0.05
2021-09-03 18:46:06.9340,-0.02,0.03,0.01,0.03
2021-09-03 18:46:06.9510,-0.01,0.02,0.01,0.02
2021-09-03 18:46:06.9550,-0.02,0.0,-0.01,0.02
2021-09-03 18:46:06.9640,0.01,0.01,-0.03,0.03
2021-09-03 18:46:06.9740,0.0,0.03,-0.03,0.04
2021-09-03 18:46:06.9840,-0.02,0.0,-0.02,0.02
2021-09-03 18:46:06.9940,-0.01,-0.01,-0.01,0.01
2021-09-03 18:46:07.0040,0.03,0.01,0.03,0.04
2021-09-03 18:46:07.0140,0.08,0.02,0.01,0.08
2021-09-03 18:46:07.0240,0.06,0.01,0.01,0.06
2021-09-03 18:46:07.0340,0.01,-0.01,0.02,0.02
2021-09-03 18:46:07.0520,-0.01,-0.02,0.01,0.02
2021-09-03 18:46:07.0550,-0.01,-0.01,-0.02,0.02
2021-09-03 18:46:07.0630,0.04,0.02,-0.04,0.06
2021-09-03 18:46:07.0740,0.03,0.04,-0.06,0.07
2021-09-03 18:46:07.0840,-0.02,-0.01,-0.04,0.04
2021-09-03 18:46:07.0940,-0.03,-0.04,-0.05,0.07
